"subjID" "Trial" "level1_choice" "level2_choice" "reward" "transition" "Stay" "PrReward" "PrTransition" "RT1" "RT2"
"110" 1 1 1 1 1 NA NA NA 984 784
"110" 2 1 1 1 1 1 1 1 811 594
"110" 3 1 2 1 1 1 1 1 425 413
"110" 4 1 1 0 1 1 1 1 829 716
"110" 5 1 1 1 1 1 0 1 428 316
"110" 6 1 4 1 -1 1 1 1 371 1037
"110" 7 1 4 0 -1 1 1 -1 774 1020
"110" 8 1 1 1 1 1 0 -1 592 980
"110" 9 1 1 1 1 1 1 1 305 476
"110" 10 1 2 1 1 1 1 1 383 462
"110" 11 1 2 0 1 1 1 1 308 530
"110" 12 2 3 0 1 0 0 1 293 466
"110" 13 2 1 0 -1 1 0 1 336 309
"110" 14 2 3 0 1 1 0 -1 300 595
"110" 15 2 2 0 -1 1 0 1 345 106
"110" 16 2 3 1 1 1 0 -1 622 482
"110" 17 2 3 0 1 1 1 1 710 572
"110" 18 2 4 1 1 1 0 1 668 380
"110" 19 2 3 1 1 1 1 1 360 439
"110" 20 2 1 1 -1 1 1 1 514 237
"110" 21 2 1 1 -1 1 1 -1 337 613
"110" 22 1 1 1 1 0 1 -1 279 777
"110" 23 1 4 1 -1 1 1 1 331 471
"110" 24 1 2 0 1 1 1 -1 363 668
"110" 25 1 1 0 1 1 0 1 469 962
"110" 26 1 1 0 1 1 0 1 876 434
"110" 27 1 1 1 1 1 0 1 1205 650
"110" 28 1 1 1 1 1 1 1 523 595
"110" 29 1 2 0 1 1 1 1 358 581
"110" 30 1 2 1 1 1 0 1 501 493
"110" 31 1 2 0 1 1 1 1 1241 1309
"110" 32 1 4 1 -1 1 0 1 387 864
"110" 33 1 2 1 1 1 1 -1 496 92
"110" 34 2 3 1 1 0 1 1 306 1248
"110" 35 1 2 0 1 0 1 1 614 409
"110" 36 1 3 1 -1 1 0 1 357 465
"110" 37 2 3 1 1 0 1 -1 401 395
"110" 38 1 2 1 1 0 1 1 434 534
"110" 39 1 2 0 1 1 1 1 406 83
"110" 40 2 2 0 -1 0 0 1 322 380
"110" 41 2 4 1 1 1 0 -1 11 486
"110" 42 2 4 1 1 1 1 1 341 134
"110" 45 1 3 1 -1 1 1 1 395 534
"110" 46 1 1 0 1 1 1 -1 17 229
"110" 47 2 2 0 -1 0 0 1 6 28
"110" 48 2 3 1 1 1 0 -1 514 198
"110" 49 2 1 0 -1 1 1 1 6 429
"110" 50 2 4 0 1 1 0 -1 78 248
"110" 51 1 4 0 -1 0 0 1 425 104
"110" 52 1 1 1 1 1 0 -1 16 390
"110" 53 1 4 0 -1 1 1 1 0 534
"110" 54 2 4 0 1 0 0 -1 158 74
"110" 57 1 3 0 -1 0 0 -1 374 537
"110" 58 1 1 1 1 1 0 -1 14 510
"110" 59 1 1 1 1 1 1 1 18 95
"110" 60 1 3 0 -1 1 1 1 11 478
"110" 61 1 2 0 1 1 0 -1 5 621
"110" 62 2 2 1 -1 0 0 1 141 395
"110" 63 2 3 1 1 1 1 -1 11 673
"110" 64 2 3 1 1 1 1 1 422 347
"110" 65 2 3 1 1 1 1 1 392 860
"110" 66 2 2 1 -1 1 1 1 11 150
"110" 67 2 2 1 -1 1 1 -1 6 553
"110" 68 2 3 0 1 1 1 -1 1329 774
"110" 69 2 2 0 -1 1 0 1 490 378
"110" 70 2 4 1 1 1 0 -1 5 546
"110" 71 2 4 0 1 1 1 1 296 525
"110" 72 2 4 0 1 1 0 1 257 334
"110" 73 2 2 0 -1 1 0 1 23 63
"110" 74 2 4 0 1 1 0 -1 79 561
"110" 75 2 4 1 1 1 0 1 128 353
"110" 76 2 4 0 1 1 1 1 19 17
"110" 77 2 3 1 1 1 0 1 1 565
"110" 78 2 1 0 -1 1 1 1 964 596
"110" 79 2 3 0 1 1 0 -1 659 1304
"110" 80 2 3 1 1 1 0 1 529 942
"110" 81 2 2 1 -1 1 1 1 772 1157
"110" 82 2 3 1 1 1 1 -1 560 1050
"110" 83 2 3 0 1 1 1 1 323 1341
"110" 84 2 3 1 1 1 0 1 119 585
"110" 85 2 4 0 1 1 1 1 83 656
"110" 86 2 2 1 -1 1 0 1 767 806
"110" 87 2 1 1 -1 1 1 -1 791 804
"110" 88 2 3 1 1 1 1 -1 587 709
"110" 89 2 3 1 1 1 1 1 373 1166
"110" 90 2 2 0 -1 1 1 1 409 1351
"110" 91 2 2 1 -1 1 0 -1 412 1150
"110" 92 2 3 0 1 1 1 -1 56 962
"110" 93 2 1 1 -1 1 0 1 550 528
"110" 94 2 2 0 -1 1 1 -1 418 452
"110" 95 2 3 1 1 1 0 -1 570 1061
"110" 96 2 4 0 1 1 1 1 6 456
"110" 97 2 3 1 1 1 0 1 236 844
"110" 98 1 2 1 1 0 1 1 403 749
"110" 99 1 4 0 -1 1 1 1 11 745
"110" 100 1 1 0 1 1 0 -1 401 411
"110" 101 1 3 1 -1 1 0 1 6 227
"110" 102 1 2 0 1 1 1 -1 0 189
"110" 103 1 1 0 1 1 0 1 17 135
"110" 104 2 2 0 -1 0 0 1 11 1293
"110" 105 2 3 1 1 1 0 -1 335 415
"110" 106 1 2 1 1 0 1 1 12 112
"110" 107 2 2 0 -1 0 1 1 50 198
"110" 108 2 3 1 1 1 0 -1 411 857
"110" 109 2 1 1 -1 1 1 1 380 546
"110" 110 1 1 1 1 0 1 -1 171 603
"110" 111 1 4 1 -1 1 1 1 18 0
"110" 112 1 3 1 -1 1 1 -1 7 54
"110" 113 2 4 0 1 0 1 -1 410 305
"110" 114 1 1 0 1 0 0 1 459 203
"110" 115 2 4 0 1 0 0 1 22 107
"110" 118 2 4 0 1 1 0 1 31 656
"110" 121 2 3 1 1 0 1 1 108 617
"110" 122 1 4 0 -1 0 1 1 0 779
"110" 125 1 1 1 1 1 1 1 450 561
"110" 126 1 2 0 1 1 1 1 784 804
"110" 129 2 3 1 1 1 0 1 436 474
"110" 130 2 3 1 1 1 1 1 988 513
"110" 131 2 1 1 -1 1 1 1 333 441
"110" 132 2 4 0 1 1 1 -1 340 472
"110" 133 2 3 0 1 1 0 1 602 917
"110" 134 2 3 1 1 1 0 1 78 461
"110" 135 1 1 0 1 0 1 1 709 1093
"110" 136 2 4 0 1 0 0 1 375 444
"110" 137 1 2 0 1 0 0 1 599 1387
"110" 138 2 4 0 1 0 0 1 603 1
"110" 139 1 3 0 -1 0 0 1 36 99
"110" 140 1 1 1 1 1 0 -1 18 708
"110" 141 1 3 0 -1 1 1 1 19 432
"110" 142 1 1 0 1 1 0 -1 17 171
"110" 143 2 2 1 -1 0 0 1 1 1072
"110" 144 2 2 1 -1 1 1 -1 239 749
"110" 145 1 2 0 1 0 1 -1 792 545
"110" 146 1 1 1 1 1 0 1 442 234
"110" 149 1 3 0 -1 1 0 1 397 799
"110" 150 2 3 1 1 0 0 -1 833 809
"110" 151 2 4 0 1 1 1 1 502 454
"110" 152 1 2 0 1 0 0 1 463 861
"110" 153 1 1 1 1 1 0 1 501 880
"110" 154 1 3 0 -1 1 1 1 707 727
"110" 155 1 1 1 1 1 0 -1 402 553
"110" 156 1 1 0 1 1 1 1 73 413
"110" 157 1 1 0 1 1 0 1 91 85
"110" 158 1 1 1 1 1 0 1 7 390
"110" 159 1 4 1 -1 1 1 1 24 764
"110" 160 1 1 1 1 1 1 -1 143 670
"110" 161 1 4 0 -1 1 1 1 7 1173
"110" 163 1 1 0 1 1 0 -1 393 345
"110" 164 1 1 0 1 1 0 1 358 479
"110" 165 1 1 0 1 1 0 1 10 459
"110" 166 2 4 1 1 0 0 1 345 690
"110" 167 1 1 1 1 0 1 1 674 700
"110" 168 1 3 0 -1 1 1 1 0 8
"110" 169 1 1 1 1 1 0 -1 495 137
"110" 170 1 1 1 1 1 1 1 533 360
"110" 171 2 3 1 1 0 1 1 845 599
"110" 172 2 2 0 -1 1 1 1 441 190
"110" 173 2 3 1 1 1 0 -1 6 1431
"110" 174 1 2 0 1 0 1 1 66 536
"110" 175 1 3 1 -1 1 0 1 287 1318
"110" 176 2 3 0 1 0 1 -1 493 444
"110" 177 2 4 1 1 1 0 1 1142 889
"110" 179 1 3 0 -1 0 1 1 640 96
"110" 180 2 4 1 1 0 0 -1 408 79
"110" 181 1 1 1 1 0 1 1 864 483
"110" 182 1 1 1 1 1 1 1 592 116
"110" 184 1 3 0 -1 1 1 1 221 661
"110" 186 2 3 1 1 0 0 -1 1050 1199
"110" 187 1 2 1 1 0 1 1 1 96
"110" 188 2 4 1 1 0 1 1 10 1030
"110" 189 2 4 1 1 1 1 1 398 112
"110" 190 2 4 0 1 1 1 1 750 792
"110" 191 2 3 0 1 1 0 1 456 829
"110" 192 2 4 0 1 1 0 1 523 458
"110" 193 2 3 1 1 1 0 1 31 117
"110" 194 2 4 1 1 1 1 1 402 342
"110" 195 2 1 1 -1 1 1 1 344 812
"110" 198 1 1 0 1 1 1 1 809 843
"110" 199 2 4 1 1 0 0 1 557 331
"110" 200 2 4 0 1 1 1 1 371 351
"111" 1 1 1 1 1 NA NA NA 866 787
"111" 2 1 1 1 1 1 1 1 386 486
"111" 3 1 1 0 1 1 1 1 354 466
"111" 4 1 1 0 1 1 0 1 924 702
"111" 5 2 4 1 1 0 0 1 566 1231
"111" 6 2 4 0 1 1 1 1 247 557
"111" 7 2 3 1 1 1 0 1 317 792
"111" 8 1 3 1 -1 0 1 1 337 958
"111" 9 1 3 0 -1 1 1 -1 281 526
"111" 10 1 2 0 1 1 0 -1 238 834
"111" 11 2 2 0 -1 0 0 1 275 319
"111" 12 2 2 0 -1 1 0 -1 235 321
"111" 13 2 3 0 1 1 0 -1 362 255
"111" 14 2 2 1 -1 1 0 1 369 297
"111" 15 2 4 1 1 1 1 -1 233 239
"111" 16 2 4 0 1 1 1 1 278 501
"111" 17 2 4 1 1 1 0 1 245 261
"111" 18 2 4 1 1 1 1 1 224 261
"111" 19 2 4 1 1 1 1 1 262 230
"111" 20 2 3 1 1 1 1 1 573 382
"111" 21 2 1 1 -1 1 1 1 353 367
"111" 22 1 3 0 -1 0 1 -1 268 377
"111" 23 1 4 1 -1 1 0 -1 260 497
"111" 24 1 1 1 1 1 1 -1 262 916
"111" 25 1 4 0 -1 1 1 1 424 928
"111" 26 1 1 1 1 1 0 -1 322 1295
"111" 29 1 4 0 -1 1 0 1 274 631
"111" 30 1 3 0 -1 1 0 -1 268 542
"111" 31 2 4 1 1 0 0 -1 264 362
"111" 32 2 1 0 -1 1 1 1 252 1103
"111" 33 1 1 0 1 0 0 -1 365 373
"111" 34 2 2 1 -1 0 0 1 260 330
"111" 35 2 4 0 1 1 1 -1 258 256
"111" 36 2 4 1 1 1 0 1 282 279
"111" 37 2 4 0 1 1 1 1 240 315
"111" 38 1 4 0 -1 0 0 1 378 300
"111" 39 1 4 0 -1 1 0 -1 240 284
"111" 40 1 1 1 1 1 0 -1 216 239
"111" 41 1 1 1 1 1 1 1 266 230
"111" 42 1 3 0 -1 1 1 1 256 235
"111" 43 1 1 1 1 1 0 -1 268 443
"111" 44 1 1 0 1 1 1 1 240 457
"111" 45 1 4 1 -1 1 0 1 248 527
"111" 46 1 3 1 -1 1 1 -1 282 395
"111" 47 1 1 1 1 1 1 -1 251 370
"111" 48 1 1 1 1 1 1 1 263 780
"111" 49 1 1 1 1 1 1 1 381 638
"111" 50 1 4 1 -1 1 1 1 255 586
"111" 51 1 1 0 1 1 1 -1 266 506
"111" 52 1 1 1 1 1 0 1 263 608
"111" 53 1 4 0 -1 1 1 1 267 577
"111" 54 1 1 1 1 1 0 -1 515 379
"111" 55 1 1 1 1 1 1 1 343 336
"111" 56 1 1 1 1 1 1 1 241 364
"111" 57 1 1 1 1 1 1 1 252 363
"111" 58 1 4 0 -1 1 1 1 248 757
"111" 59 1 3 0 -1 1 0 -1 253 856
"111" 60 1 1 1 1 1 0 -1 437 344
"111" 61 1 3 1 -1 1 1 1 239 362
"111" 62 1 1 0 1 1 1 -1 281 339
"111" 63 2 4 1 1 0 0 1 234 386
"111" 64 2 4 1 1 1 1 1 260 315
"111" 65 2 4 0 1 1 1 1 335 522
"111" 66 2 4 0 1 1 0 1 260 362
"111" 67 2 4 0 1 1 0 1 258 537
"111" 68 1 1 1 1 0 0 1 578 347
"111" 69 1 1 0 1 1 1 1 262 264
"111" 70 1 1 1 1 1 0 1 428 529
"111" 71 1 1 1 1 1 1 1 267 273
"111" 72 1 2 0 1 1 1 1 368 316
"111" 73 1 1 0 1 1 0 1 275 280
"111" 74 1 1 0 1 1 0 1 231 198
"111" 75 1 2 0 1 1 0 1 251 262
"111" 76 1 2 0 1 1 0 1 322 703
"111" 77 2 4 0 1 0 0 1 235 227
"111" 78 1 3 0 -1 0 0 1 230 224
"111" 79 1 1 1 1 1 0 -1 1 312
"111" 80 1 1 1 1 1 1 1 514 380
"111" 81 1 1 0 1 1 1 1 250 241
"111" 82 1 1 1 1 1 0 1 248 229
"111" 83 1 1 1 1 1 1 1 292 745
"111" 84 1 3 0 -1 1 1 1 259 220
"111" 85 1 1 1 1 1 0 -1 317 430
"111" 86 1 1 1 1 1 1 1 237 585
"111" 87 1 3 1 -1 1 1 1 257 247
"111" 88 1 1 1 1 1 1 -1 227 266
"111" 89 1 1 1 1 1 1 1 233 221
"111" 90 1 1 1 1 1 1 1 221 328
"111" 91 1 3 1 -1 1 1 1 243 264
"111" 92 1 1 1 1 1 1 -1 251 225
"111" 93 1 1 1 1 1 1 1 252 227
"111" 94 1 1 0 1 1 1 1 261 228
"111" 95 1 3 1 -1 1 0 1 293 282
"111" 96 1 1 0 1 1 1 -1 829 402
"111" 97 1 1 0 1 1 0 1 237 224
"111" 98 1 4 1 -1 1 0 1 222 252
"111" 99 2 2 0 -1 0 1 -1 465 249
"111" 100 1 1 1 1 0 0 -1 292 247
"111" 101 1 1 1 1 1 1 1 302 243
"111" 102 1 3 0 -1 1 1 1 5 235
"111" 103 1 2 1 1 1 0 -1 280 1096
"111" 104 1 3 1 -1 1 1 1 247 219
"111" 105 1 3 0 -1 1 1 -1 239 202
"111" 106 1 4 0 -1 1 0 -1 240 423
"111" 107 1 1 1 1 1 0 -1 272 236
"111" 108 1 1 1 1 1 1 1 286 371
"111" 109 1 1 1 1 1 1 1 255 230
"111" 110 1 1 1 1 1 1 1 218 593
"111" 111 1 1 1 1 1 1 1 305 234
"111" 112 1 1 1 1 1 1 1 255 234
"111" 113 1 4 0 -1 1 1 1 255 289
"111" 114 1 2 1 1 1 0 -1 238 230
"111" 115 1 1 0 1 1 1 1 246 172
"111" 116 1 1 1 1 1 0 1 246 230
"111" 117 1 1 1 1 1 1 1 239 266
"111" 118 1 1 0 1 1 1 1 248 233
"111" 119 1 4 0 -1 1 0 1 239 230
"111" 120 1 2 0 1 1 0 -1 310 328
"111" 121 1 3 0 -1 1 0 1 242 274
"111" 122 1 1 1 1 1 0 -1 303 202
"111" 123 1 1 1 1 1 1 1 302 130
"111" 124 1 1 1 1 1 1 1 262 245
"111" 125 1 1 1 1 1 1 1 239 224
"111" 126 1 1 1 1 1 1 1 219 416
"111" 127 1 2 0 1 1 1 1 228 236
"111" 128 1 3 1 -1 1 0 1 256 239
"111" 129 1 1 1 1 1 1 -1 461 225
"111" 130 1 3 0 -1 1 1 1 241 0
"111" 131 1 1 1 1 1 0 -1 233 250
"111" 132 1 1 0 1 1 1 1 279 251
"111" 133 1 3 1 -1 1 0 1 259 258
"111" 134 1 1 0 1 1 1 -1 286 267
"111" 135 2 1 1 -1 0 0 1 741 753
"111" 136 2 4 0 1 1 1 -1 295 379
"111" 137 2 2 1 -1 1 0 1 282 221
"111" 138 2 2 0 -1 1 1 -1 245 254
"111" 139 1 1 1 1 0 0 -1 279 224
"111" 140 1 1 1 1 1 1 1 238 305
"111" 141 1 1 1 1 1 1 1 399 204
"111" 142 1 1 1 1 1 1 1 22 1262
"111" 143 1 1 1 1 1 1 1 854 706
"111" 144 1 1 0 1 1 1 1 409 253
"111" 145 1 4 1 -1 1 0 1 438 233
"111" 146 1 1 0 1 1 1 -1 115 225
"111" 147 1 1 1 1 1 0 1 216 225
"111" 148 1 1 1 1 1 1 1 242 204
"111" 149 1 1 1 1 1 1 1 216 217
"111" 150 1 1 0 1 1 1 1 297 333
"111" 151 1 4 0 -1 1 0 1 408 622
"111" 152 1 1 1 1 1 0 -1 270 237
"111" 153 1 1 1 1 1 1 1 365 442
"111" 154 1 1 0 1 1 1 1 377 301
"111" 155 1 1 1 1 1 0 1 614 444
"111" 156 1 3 1 -1 1 1 1 257 214
"111" 157 1 1 1 1 1 1 -1 258 238
"111" 158 1 1 0 1 1 1 1 224 199
"111" 159 1 2 0 1 1 0 1 233 15
"111" 160 2 4 0 1 0 0 1 234 390
"111" 161 1 1 0 1 0 0 1 279 223
"111" 162 1 1 1 1 1 0 1 240 230
"111" 163 1 1 1 1 1 1 1 241 226
"111" 164 1 3 1 -1 1 1 1 231 214
"111" 165 1 1 1 1 1 1 -1 245 185
"111" 166 1 1 1 1 1 1 1 232 205
"111" 167 1 1 1 1 1 1 1 253 231
"111" 168 1 1 1 1 1 1 1 253 199
"111" 169 1 1 0 1 1 1 1 221 1
"111" 170 1 2 0 1 1 0 1 262 254
"111" 171 1 3 0 -1 1 0 1 251 228
"111" 172 1 3 0 -1 1 0 -1 264 344
"111" 173 1 3 0 -1 1 0 -1 596 1357
"111" 174 1 2 0 1 1 0 -1 223 232
"111" 175 1 3 0 -1 1 0 1 313 241
"111" 176 2 2 0 -1 0 0 -1 281 265
"111" 177 1 3 0 -1 0 0 -1 260 225
"111" 178 1 2 0 1 1 0 -1 259 261
"111" 184 1 1 1 1 1 0 1 782 808
"111" 185 1 2 0 1 1 1 1 693 492
"111" 186 1 3 0 -1 1 0 1 232 449
"111" 187 1 1 1 1 1 0 -1 240 211
"111" 188 1 1 0 1 1 1 1 452 283
"111" 189 1 1 0 1 1 0 1 243 214
"111" 190 1 2 0 1 1 0 1 230 227
"111" 191 1 3 1 -1 1 0 1 272 212
"111" 192 1 1 1 1 1 1 -1 285 217
"111" 193 1 3 0 -1 1 1 1 281 223
"111" 194 1 1 0 1 1 0 -1 239 230
"111" 195 2 4 0 1 0 0 1 331 243
"111" 196 2 3 1 1 1 0 1 312 203
"111" 197 2 1 0 -1 1 1 1 274 216
"111" 198 1 1 1 1 0 0 -1 259 513
"111" 199 1 1 1 1 1 1 1 252 352
"111" 200 1 1 1 1 1 1 1 327 484
"114" 2 1 3 1 -1 1 1 1 151 563
"114" 3 1 3 0 -1 1 1 -1 296 161
"114" 4 1 1 0 1 1 0 -1 322 260
"114" 5 2 4 1 1 0 0 1 312 289
"114" 6 2 4 1 1 1 1 1 496 389
"114" 7 1 3 0 -1 0 1 1 424 214
"114" 8 2 4 1 1 0 0 -1 268 233
"114" 9 2 4 0 1 1 1 1 282 296
"114" 10 1 1 1 1 0 0 1 282 242
"114" 11 1 3 0 -1 1 1 1 241 314
"114" 12 2 4 0 1 0 0 -1 179 239
"114" 13 1 1 0 1 0 0 1 70 269
"114" 14 1 3 0 -1 1 0 1 0 734
"114" 15 1 3 0 -1 1 0 -1 333 224
"114" 16 2 4 1 1 0 0 -1 285 249
"114" 17 2 4 1 1 1 1 1 248 283
"114" 18 2 2 1 -1 1 1 1 260 248
"114" 19 2 2 0 -1 1 1 -1 257 282
"114" 20 1 1 1 1 0 0 -1 0 627
"114" 21 1 1 1 1 1 1 1 281 244
"114" 22 1 3 0 -1 1 1 1 275 415
"114" 23 2 4 0 1 0 0 -1 272 261
"114" 24 1 1 0 1 0 0 1 299 259
"114" 25 1 1 0 1 1 0 1 242 299
"114" 26 1 3 1 -1 1 0 1 217 254
"114" 27 1 1 1 1 1 1 -1 255 282
"114" 28 1 1 1 1 1 1 1 218 278
"114" 29 1 1 0 1 1 1 1 70 272
"114" 30 2 4 0 1 0 0 1 241 380
"114" 31 1 1 1 1 0 0 1 239 369
"114" 32 1 1 1 1 1 1 1 316 310
"114" 33 1 1 0 1 1 1 1 258 470
"114" 34 1 4 0 -1 1 0 1 290 501
"114" 35 1 3 0 -1 1 0 -1 111 225
"114" 36 1 3 0 -1 1 0 -1 151 243
"114" 37 2 4 1 1 0 0 -1 238 255
"114" 38 2 2 1 -1 1 1 1 272 362
"114" 39 2 4 1 1 1 1 -1 343 374
"114" 40 2 4 1 1 1 1 1 62 150
"114" 41 2 4 0 1 1 1 1 230 308
"114" 42 2 2 0 -1 1 0 1 227 235
"114" 43 1 1 1 1 0 0 -1 269 221
"114" 44 1 1 1 1 1 1 1 253 304
"114" 45 1 3 1 -1 1 1 1 281 340
"114" 46 1 1 0 1 1 1 -1 206 231
"114" 47 2 4 0 1 0 0 1 261 192
"114" 48 1 1 1 1 0 0 1 252 213
"114" 49 1 1 0 1 1 1 1 293 310
"114" 50 2 2 1 -1 0 0 1 290 182
"114" 51 2 4 0 1 1 1 -1 299 324
"114" 52 1 1 1 1 0 0 1 71 333
"114" 53 1 1 1 1 1 1 1 293 357
"114" 54 1 3 1 -1 1 1 1 263 273
"114" 55 1 1 0 1 1 1 -1 253 9
"114" 56 2 4 0 1 0 0 1 0 470
"114" 57 1 1 1 1 0 0 1 246 238
"114" 58 1 1 0 1 1 1 1 296 389
"114" 59 2 4 1 1 0 0 1 265 287
"114" 60 2 4 0 1 1 1 1 267 303
"114" 61 1 3 0 -1 0 0 1 264 183
"114" 62 1 3 1 -1 1 0 -1 251 270
"114" 63 1 3 0 -1 1 1 -1 275 304
"114" 64 2 4 1 1 0 0 -1 255 240
"114" 65 2 4 0 1 1 1 1 255 285
"114" 66 1 1 1 1 0 0 1 274 337
"114" 67 1 1 1 1 1 1 1 328 497
"114" 68 1 3 1 -1 1 1 1 600 433
"114" 69 1 1 1 1 1 1 -1 287 481
"114" 70 1 1 0 1 1 1 1 250 269
"114" 72 1 1 0 1 1 0 1 960 421
"114" 73 1 1 0 1 1 0 1 251 223
"114" 75 2 2 0 -1 0 0 1 1256 131
"114" 76 2 4 1 1 1 0 -1 336 337
"114" 77 2 4 1 1 1 1 1 325 251
"114" 78 2 2 1 -1 1 1 1 279 409
"114" 79 2 4 0 1 1 1 -1 299 335
"114" 80 1 3 1 -1 0 0 1 242 265
"114" 81 1 1 0 1 1 1 -1 292 422
"114" 82 2 4 0 1 0 0 1 257 256
"114" 83 1 1 0 1 0 0 1 264 181
"114" 84 1 1 1 1 1 0 1 279 187
"114" 85 1 3 1 -1 1 1 1 298 257
"114" 86 1 3 1 -1 1 1 -1 357 242
"114" 87 1 1 0 1 1 1 -1 229 348
"114" 88 2 4 1 1 0 0 1 306 268
"114" 89 2 4 1 1 1 1 1 320 309
"114" 90 2 4 0 1 1 1 1 258 232
"114" 91 1 1 0 1 0 0 1 281 255
"114" 92 2 4 1 1 0 0 1 293 209
"114" 93 2 4 1 1 1 1 1 348 272
"114" 94 2 4 0 1 1 1 1 270 268
"114" 95 1 3 0 -1 0 0 1 249 212
"114" 96 2 2 1 -1 0 0 -1 329 237
"114" 97 2 4 1 1 1 1 -1 289 257
"114" 98 2 4 0 1 1 1 1 289 390
"114" 99 1 1 0 1 0 0 1 254 280
"114" 100 2 2 0 -1 0 0 1 269 306
"114" 101 2 4 0 1 1 0 -1 270 281
"114" 102 1 3 1 -1 0 0 1 306 217
"114" 103 1 3 1 -1 1 1 -1 310 274
"114" 104 1 3 0 -1 1 1 -1 329 257
"114" 105 2 4 1 1 0 0 -1 276 241
"114" 106 2 2 1 -1 1 1 1 314 218
"114" 107 2 4 1 1 1 1 -1 294 189
"114" 108 2 4 1 1 1 1 1 312 238
"114" 109 2 2 0 -1 1 1 1 233 250
"114" 110 1 1 0 1 0 0 -1 278 233
"114" 111 2 4 1 1 0 0 1 215 166
"114" 112 2 4 1 1 1 1 1 267 214
"114" 113 2 4 1 1 1 1 1 279 400
"114" 114 2 4 0 1 1 1 1 257 456
"114" 115 1 1 1 1 0 0 1 540 206
"114" 116 1 1 0 1 1 1 1 251 227
"114" 117 2 2 0 -1 0 0 1 236 646
"114" 118 1 3 1 -1 0 0 -1 266 179
"114" 119 1 1 1 1 1 1 -1 278 243
"114" 120 1 3 1 -1 1 1 1 235 235
"114" 121 1 3 1 -1 1 1 -1 281 233
"114" 122 1 3 1 -1 1 1 -1 360 315
"114" 123 1 3 1 -1 1 1 -1 281 208
"114" 124 1 1 1 1 1 1 -1 230 474
"114" 125 1 1 0 1 1 1 1 348 236
"114" 126 2 4 1 1 0 0 1 262 227
"114" 127 2 2 0 -1 1 1 1 251 305
"114" 128 1 1 0 1 0 0 -1 211 647
"114" 129 2 2 0 -1 0 0 1 300 207
"114" 130 2 4 0 1 1 0 -1 294 201
"114" 131 1 1 1 1 0 0 1 300 39
"114" 132 1 1 0 1 1 1 1 340 644
"114" 133 1 1 1 1 1 0 1 261 246
"114" 134 1 3 0 -1 1 1 1 316 286
"114" 135 1 1 0 1 1 0 -1 1389 664
"114" 136 1 1 0 1 1 0 1 291 274
"114" 137 2 2 0 -1 0 0 1 559 233
"114" 138 1 1 1 1 0 0 -1 342 258
"114" 139 1 3 1 -1 1 1 1 351 431
"114" 140 1 1 0 1 1 1 -1 273 303
"114" 141 1 1 0 1 1 0 1 300 51
"114" 142 2 4 0 1 0 0 1 446 207
"114" 143 1 3 1 -1 0 0 1 257 328
"114" 144 1 1 1 1 1 1 -1 277 239
"114" 145 1 1 1 1 1 1 1 282 299
"114" 146 1 1 0 1 1 1 1 312 273
"114" 147 2 4 1 1 0 0 1 315 293
"114" 148 2 4 1 1 1 1 1 390 414
"114" 149 2 4 1 1 1 1 1 534 323
"114" 150 2 4 0 1 1 1 1 273 317
"114" 151 1 1 0 1 0 0 1 299 245
"114" 152 2 4 1 1 0 0 1 240 187
"114" 153 2 4 0 1 1 1 1 363 385
"114" 154 1 1 0 1 0 0 1 290 170
"114" 155 2 2 0 -1 0 0 1 99 196
"114" 156 1 3 1 -1 0 0 -1 257 92
"114" 157 1 1 1 1 1 1 -1 297 257
"114" 158 1 3 0 -1 1 1 1 371 260
"114" 159 1 3 0 -1 1 0 -1 238 4
"114" 160 1 1 0 1 1 0 -1 224 262
"114" 161 2 4 1 1 0 0 1 305 205
"114" 162 2 4 1 1 1 1 1 276 235
"114" 163 1 1 1 1 0 1 1 273 164
"114" 164 1 1 1 1 1 1 1 332 294
"114" 165 2 4 1 1 0 1 1 503 247
"114" 166 1 1 0 1 0 1 1 280 219
"114" 167 2 4 0 1 0 0 1 44 648
"114" 168 1 1 0 1 0 0 1 412 236
"114" 169 1 1 0 1 1 0 1 274 154
"114" 170 2 2 0 -1 0 0 1 181 510
"114" 171 2 4 1 1 1 0 -1 253 226
"114" 172 2 4 1 1 1 1 1 284 268
"114" 173 2 4 1 1 1 1 1 355 209
"114" 174 2 4 0 1 1 1 1 247 271
"114" 175 1 3 1 -1 0 0 1 267 10
"114" 176 1 3 0 -1 1 1 -1 299 151
"114" 177 2 4 0 1 0 0 -1 272 246
"114" 178 1 1 0 1 0 0 1 241 239
"114" 179 1 3 1 -1 1 0 1 271 90
"114" 180 1 1 1 1 1 1 -1 280 273
"114" 181 1 1 1 1 1 1 1 276 232
"114" 182 1 1 0 1 1 1 1 314 309
"114" 183 1 3 1 -1 1 0 1 312 271
"114" 184 1 1 1 1 1 1 -1 284 266
"114" 185 1 1 0 1 1 1 1 274 234
"114" 186 1 1 0 1 1 0 1 234 231
"114" 187 2 4 1 1 0 0 1 268 127
"114" 188 2 4 0 1 1 1 1 272 199
"114" 189 1 1 1 1 0 0 1 230 108
"114" 190 1 3 1 -1 1 1 1 276 125
"114" 191 1 3 1 -1 1 1 -1 272 270
"114" 192 1 1 0 1 1 1 -1 285 208
"114" 193 2 4 0 1 0 0 1 128 20
"114" 194 1 1 1 1 0 0 1 300 156
"114" 195 1 1 0 1 1 1 1 290 272
"114" 196 2 4 1 1 0 0 1 278 251
"114" 197 2 4 0 1 1 1 1 265 264
"114" 198 1 1 0 1 0 0 1 262 228
"114" 199 2 4 0 1 0 0 1 527 329
"114" 200 1 1 0 1 0 0 1 257 308
"115" 2 1 1 0 1 1 0 1 414 862
"115" 2 1 1 0 1 1 0 1 414 862
"115" 3 2 4 1 1 0 0 1 823 834
"115" 3 2 4 1 1 1 1 1 823 834
"115" 4 2 4 0 1 1 1 1 117 756
"115" 4 2 4 0 1 1 0 1 117 756
"115" 5 1 2 0 1 0 0 1 379 1014
"115" 5 1 2 0 1 1 0 1 379 1014
"115" 6 2 3 1 1 0 0 1 405 890
"115" 6 2 3 1 1 1 1 1 405 890
"115" 7 2 1 0 -1 1 1 1 559 719
"115" 7 2 1 0 -1 1 0 -1 559 719
"115" 8 1 2 0 1 0 0 -1 457 633
"115" 8 1 2 0 1 1 0 1 457 633
"115" 9 2 1 0 -1 0 0 1 577 703
"115" 9 2 1 0 -1 1 0 -1 577 703
"115" 10 1 3 1 -1 0 0 -1 666 822
"115" 10 1 3 1 -1 1 1 -1 666 822
"115" 11 2 2 1 -1 0 1 -1 73 716
"115" 11 2 2 1 -1 1 1 -1 73 716
"115" 12 1 3 1 -1 0 1 -1 697 1258
"115" 12 1 3 1 -1 1 1 -1 697 1258
"115" 13 1 4 0 -1 1 1 -1 767 857
"115" 13 1 4 0 -1 1 0 -1 767 857
"115" 14 1 1 0 1 1 0 -1 503 1389
"115" 14 1 1 0 1 1 0 1 503 1389
"115" 15 2 2 0 -1 0 0 1 1042 752
"115" 15 2 2 0 -1 1 0 -1 1042 752
"115" 16 2 4 1 1 1 0 -1 23 1179
"115" 16 2 4 1 1 1 1 1 23 1179
"115" 17 2 3 1 1 1 1 1 54 1266
"115" 17 2 3 1 1 1 1 1 54 1266
"115" 18 1 3 1 -1 0 1 1 147 706
"115" 18 1 3 1 -1 1 1 -1 147 706
"115" 19 1 4 0 -1 1 1 -1 890 1270
"115" 19 1 4 0 -1 1 0 -1 890 1270
"115" 20 2 4 1 1 0 0 -1 494 887
"115" 20 2 4 1 1 1 1 1 494 887
"115" 21 1 1 0 1 0 1 1 872 1334
"115" 21 1 1 0 1 1 0 1 872 1334
"115" 22 2 3 0 1 0 0 1 0 1239
"115" 22 2 3 0 1 1 0 1 0 1239
"115" 23 2 4 0 1 1 0 1 119 993
"115" 23 2 4 0 1 1 0 1 119 993
"115" 24 2 2 1 -1 1 0 1 7 1246
"115" 24 2 2 1 -1 1 1 -1 7 1246
"115" 25 1 1 1 1 0 1 -1 115 873
"115" 25 1 1 1 1 1 1 1 115 873
"115" 26 2 3 1 1 0 1 1 363 894
"115" 26 2 3 1 1 1 1 1 363 894
"115" 27 2 4 1 1 1 1 1 890 1200
"115" 27 2 4 1 1 1 1 1 890 1200
"115" 28 1 2 0 1 0 1 1 558 1182
"115" 28 1 2 0 1 1 0 1 558 1182
"115" 29 2 3 1 1 0 0 1 284 954
"115" 29 2 3 1 1 1 1 1 284 954
"115" 30 1 3 1 -1 0 1 1 443 880
"115" 30 1 3 1 -1 1 1 -1 443 880
"115" 31 2 1 0 -1 0 1 -1 494 1401
"115" 31 2 1 0 -1 1 0 -1 494 1401
"115" 32 1 3 0 -1 0 0 -1 331 1065
"115" 32 1 3 0 -1 1 0 -1 331 1065
"115" 33 2 2 0 -1 0 0 -1 96 910
"115" 33 2 2 0 -1 1 0 -1 96 910
"115" 34 1 1 0 1 0 0 -1 347 568
"115" 34 1 1 0 1 1 0 1 347 568
"115" 35 1 2 1 1 1 0 1 402 997
"115" 35 1 2 1 1 1 1 1 402 997
"115" 36 2 3 1 1 0 1 1 153 896
"115" 36 2 3 1 1 1 1 1 153 896
"115" 37 1 1 1 1 0 1 1 490 1181
"115" 37 1 1 1 1 1 1 1 490 1181
"115" 38 2 1 0 -1 0 1 1 693 867
"115" 38 2 1 0 -1 1 0 -1 693 867
"115" 39 2 4 1 1 1 0 -1 296 1022
"115" 39 2 4 1 1 1 1 1 296 1022
"115" 40 1 1 1 1 0 1 1 478 1158
"115" 40 1 1 1 1 1 1 1 478 1158
"115" 41 2 2 1 -1 0 1 1 403 964
"115" 41 2 2 1 -1 1 1 -1 403 964
"115" 42 1 3 1 -1 0 1 -1 850 1141
"115" 42 1 3 1 -1 1 1 -1 850 1141
"115" 43 2 1 0 -1 0 1 -1 460 1321
"115" 43 2 1 0 -1 1 0 -1 460 1321
"115" 44 1 2 1 1 0 0 -1 627 856
"115" 44 1 2 1 1 1 1 1 627 856
"115" 45 1 1 0 1 1 1 1 439 1161
"115" 45 1 1 0 1 1 0 1 439 1161
"115" 46 2 3 1 1 0 0 1 452 976
"115" 46 2 3 1 1 1 1 1 452 976
"115" 47 2 4 0 1 1 1 1 470 1492
"115" 47 2 4 0 1 1 0 1 470 1492
"115" 48 2 1 0 -1 1 0 1 548 1149
"115" 48 2 1 0 -1 1 0 -1 548 1149
"115" 50 2 3 0 1 1 0 1 470 855
"115" 51 2 1 0 -1 1 0 1 339 771
"115" 51 2 1 0 -1 1 0 -1 339 771
"115" 52 2 3 1 1 1 0 -1 314 908
"115" 52 2 3 1 1 1 1 1 314 908
"115" 53 2 4 1 1 1 1 1 611 983
"115" 53 2 4 1 1 1 1 1 611 983
"115" 54 2 2 0 -1 1 1 1 286 524
"115" 54 2 2 0 -1 1 0 -1 286 524
"115" 55 1 2 0 1 0 0 -1 494 1147
"115" 55 1 2 0 1 1 0 1 494 1147
"115" 56 2 4 1 1 0 0 1 340 1025
"115" 56 2 4 1 1 1 1 1 340 1025
"115" 57 2 3 0 1 1 1 1 459 742
"115" 57 2 3 0 1 1 0 1 459 742
"115" 58 2 2 1 -1 1 0 1 0 702
"115" 58 2 2 1 -1 1 1 -1 0 702
"115" 59 2 3 0 1 1 1 -1 466 971
"115" 59 2 3 0 1 1 0 1 466 971
"115" 60 2 3 1 1 1 0 1 302 872
"115" 60 2 3 1 1 1 1 1 302 872
"115" 61 2 3 1 1 1 1 1 366 783
"115" 61 2 3 1 1 1 1 1 366 783
"115" 62 1 4 1 -1 0 1 1 429 1030
"115" 62 1 4 1 -1 1 1 -1 429 1030
"115" 63 2 2 1 -1 0 1 -1 445 587
"115" 63 2 2 1 -1 1 1 -1 445 587
"115" 64 1 4 1 -1 0 1 -1 323 996
"115" 64 1 4 1 -1 1 1 -1 323 996
"115" 65 1 2 1 1 1 1 -1 602 639
"115" 65 1 2 1 1 1 1 1 602 639
"115" 66 2 3 1 1 0 1 1 424 790
"115" 66 2 3 1 1 1 1 1 424 790
"115" 69 2 2 0 -1 1 0 -1 464 980
"115" 70 2 2 1 -1 1 0 -1 488 764
"115" 70 2 2 1 -1 1 1 -1 488 764
"115" 71 1 2 0 1 0 1 -1 363 597
"115" 71 1 2 0 1 1 0 1 363 597
"115" 72 2 4 0 1 0 0 1 362 792
"115" 72 2 4 0 1 1 0 1 362 792
"115" 73 2 1 1 -1 1 0 1 300 425
"115" 73 2 1 1 -1 1 1 -1 300 425
"115" 74 2 4 1 1 1 1 -1 428 1050
"115" 74 2 4 1 1 1 1 1 428 1050
"115" 75 2 3 0 1 1 1 1 506 1160
"115" 75 2 3 0 1 1 0 1 506 1160
"115" 76 2 2 0 -1 1 0 1 464 642
"115" 76 2 2 0 -1 1 0 -1 464 642
"115" 78 1 2 0 1 1 0 1 579 835
"115" 79 2 1 1 -1 0 0 1 521 678
"115" 79 2 1 1 -1 1 1 -1 521 678
"115" 80 2 4 1 1 1 1 -1 483 973
"115" 80 2 4 1 1 1 1 1 483 973
"115" 81 2 3 1 1 1 1 1 413 666
"115" 81 2 3 1 1 1 1 1 413 666
"115" 82 1 4 1 -1 0 1 1 211 909
"115" 82 1 4 1 -1 1 1 -1 211 909
"115" 83 2 2 1 -1 0 1 -1 362 878
"115" 83 2 2 1 -1 1 1 -1 362 878
"115" 84 1 1 0 1 0 1 -1 79 785
"115" 84 1 1 0 1 1 0 1 79 785
"115" 85 2 2 1 -1 0 0 1 368 1481
"115" 85 2 2 1 -1 1 1 -1 368 1481
"115" 86 2 3 1 1 1 1 -1 609 484
"115" 86 2 3 1 1 1 1 1 609 484
"115" 87 2 4 0 1 1 1 1 11 150
"115" 87 2 4 0 1 1 0 1 11 150
"115" 88 2 4 1 1 1 0 1 666 1043
"115" 88 2 4 1 1 1 1 1 666 1043
"115" 89 1 2 1 1 0 1 1 305 596
"115" 89 1 2 1 1 1 1 1 305 596
"115" 90 2 4 1 1 0 1 1 20 802
"115" 90 2 4 1 1 1 1 1 20 802
"115" 91 1 1 0 1 0 1 1 322 881
"115" 91 1 1 0 1 1 0 1 322 881
"115" 92 2 4 1 1 0 0 1 432 712
"115" 92 2 4 1 1 1 1 1 432 712
"115" 93 2 2 1 -1 1 1 1 259 768
"115" 93 2 2 1 -1 1 1 -1 259 768
"115" 94 2 1 1 -1 1 1 -1 440 569
"115" 94 2 1 1 -1 1 1 -1 440 569
"115" 95 1 2 0 1 0 1 -1 285 611
"115" 95 1 2 0 1 1 0 1 285 611
"115" 96 2 4 0 1 0 0 1 314 782
"115" 96 2 4 0 1 1 0 1 314 782
"115" 97 2 2 1 -1 1 0 1 252 720
"115" 97 2 2 1 -1 1 1 -1 252 720
"115" 98 1 1 0 1 0 1 -1 127 997
"115" 98 1 1 0 1 1 0 1 127 997
"115" 99 2 4 1 1 0 0 1 400 811
"115" 99 2 4 1 1 1 1 1 400 811
"115" 101 2 4 1 1 1 1 1 1 478
"115" 102 2 3 1 1 1 1 1 300 503
"115" 102 2 3 1 1 1 1 1 300 503
"115" 103 1 2 1 1 0 1 1 403 696
"115" 103 1 2 1 1 1 1 1 403 696
"115" 104 2 3 0 1 0 1 1 390 867
"115" 104 2 3 0 1 1 0 1 390 867
"115" 105 1 2 1 1 0 0 1 410 568
"115" 105 1 2 1 1 1 1 1 410 568
"115" 106 2 4 1 1 0 1 1 433 785
"115" 106 2 4 1 1 1 1 1 433 785
"115" 107 2 3 0 1 1 1 1 342 822
"115" 107 2 3 0 1 1 0 1 342 822
"115" 108 2 4 0 1 1 0 1 396 715
"115" 108 2 4 0 1 1 0 1 396 715
"115" 109 2 3 0 1 1 0 1 374 577
"115" 109 2 3 0 1 1 0 1 374 577
"115" 110 1 2 1 1 0 0 1 884 730
"115" 110 1 2 1 1 1 1 1 884 730
"115" 111 2 4 1 1 0 1 1 0 392
"115" 111 2 4 1 1 1 1 1 0 392
"115" 112 1 1 0 1 0 1 1 810 860
"115" 112 1 1 0 1 1 0 1 810 860
"115" 113 2 4 0 1 0 0 1 349 660
"115" 113 2 4 0 1 1 0 1 349 660
"115" 114 2 2 1 -1 1 0 1 0 967
"115" 114 2 2 1 -1 1 1 -1 0 967
"115" 115 2 3 0 1 1 1 -1 600 878
"115" 115 2 3 0 1 1 0 1 600 878
"115" 116 2 2 1 -1 1 0 1 330 527
"115" 116 2 2 1 -1 1 1 -1 330 527
"115" 117 1 2 1 1 0 1 -1 734 777
"115" 117 1 2 1 1 1 1 1 734 777
"115" 118 2 3 0 1 0 1 1 342 1029
"115" 118 2 3 0 1 1 0 1 342 1029
"115" 119 2 2 1 -1 1 0 1 281 872
"115" 119 2 2 1 -1 1 1 -1 281 872
"115" 120 2 4 1 1 1 1 -1 461 630
"115" 120 2 4 1 1 1 1 1 461 630
"115" 121 2 3 0 1 1 1 1 369 726
"115" 121 2 3 0 1 1 0 1 369 726
"115" 122 2 4 1 1 1 0 1 291 1027
"115" 122 2 4 1 1 1 1 1 291 1027
"115" 123 2 4 0 1 1 1 1 396 1071
"115" 123 2 4 0 1 1 0 1 396 1071
"115" 124 2 1 0 -1 1 0 1 303 781
"115" 124 2 1 0 -1 1 0 -1 303 781
"115" 125 2 4 1 1 1 0 -1 363 927
"115" 125 2 4 1 1 1 1 1 363 927
"115" 126 2 2 1 -1 1 1 1 381 1098
"115" 126 2 2 1 -1 1 1 -1 381 1098
"115" 127 2 4 1 1 1 1 -1 388 694
"115" 127 2 4 1 1 1 1 1 388 694
"115" 128 1 2 1 1 0 1 1 81 682
"115" 128 1 2 1 1 1 1 1 81 682
"115" 129 2 4 1 1 0 1 1 343 668
"115" 129 2 4 1 1 1 1 1 343 668
"115" 130 1 2 0 1 0 1 1 372 510
"115" 130 1 2 0 1 1 0 1 372 510
"115" 131 2 2 1 -1 0 0 1 711 972
"115" 131 2 2 1 -1 1 1 -1 711 972
"115" 132 2 4 1 1 1 1 -1 593 698
"115" 132 2 4 1 1 1 1 1 593 698
"115" 133 1 2 0 1 0 1 1 0 886
"115" 133 1 2 0 1 1 0 1 0 886
"115" 134 2 4 1 1 0 0 1 362 595
"115" 134 2 4 1 1 1 1 1 362 595
"115" 135 2 1 1 -1 1 1 1 415 882
"115" 135 2 1 1 -1 1 1 -1 415 882
"115" 136 1 2 1 1 0 1 -1 383 711
"115" 136 1 2 1 1 1 1 1 383 711
"115" 137 2 4 1 1 0 1 1 64 620
"115" 137 2 4 1 1 1 1 1 64 620
"115" 138 1 1 1 1 0 1 1 259 850
"115" 138 1 1 1 1 1 1 1 259 850
"115" 139 2 2 0 -1 0 1 1 0 699
"115" 139 2 2 0 -1 1 0 -1 0 699
"115" 140 2 4 1 1 1 0 -1 344 471
"115" 140 2 4 1 1 1 1 1 344 471
"115" 141 1 2 1 1 0 1 1 259 1101
"115" 141 1 2 1 1 1 1 1 259 1101
"115" 142 2 4 1 1 0 1 1 341 1033
"115" 142 2 4 1 1 1 1 1 341 1033
"115" 143 1 3 1 -1 0 1 1 451 921
"115" 143 1 3 1 -1 1 1 -1 451 921
"115" 144 2 4 0 1 0 1 -1 311 753
"115" 144 2 4 0 1 1 0 1 311 753
"115" 145 1 2 0 1 0 0 1 207 390
"115" 145 1 2 0 1 1 0 1 207 390
"115" 146 2 4 1 1 0 0 1 358 637
"115" 146 2 4 1 1 1 1 1 358 637
"115" 147 1 1 0 1 0 1 1 259 706
"115" 147 1 1 0 1 1 0 1 259 706
"115" 148 2 3 0 1 0 0 1 268 895
"115" 148 2 3 0 1 1 0 1 268 895
"115" 149 2 4 1 1 1 0 1 354 914
"115" 149 2 4 1 1 1 1 1 354 914
"115" 150 1 1 0 1 0 1 1 480 455
"115" 150 1 1 0 1 1 0 1 480 455
"115" 151 2 1 0 -1 0 0 1 527 822
"115" 151 2 1 0 -1 1 0 -1 527 822
"115" 152 2 4 1 1 1 0 -1 323 391
"115" 152 2 4 1 1 1 1 1 323 391
"115" 153 1 2 0 1 0 1 1 105 404
"115" 153 1 2 0 1 1 0 1 105 404
"115" 154 2 4 0 1 0 0 1 551 645
"115" 154 2 4 0 1 1 0 1 551 645
"115" 155 2 4 0 1 1 0 1 540 498
"115" 155 2 4 0 1 1 0 1 540 498
"115" 156 2 2 0 -1 1 0 1 24 396
"115" 156 2 2 0 -1 1 0 -1 24 396
"115" 157 2 4 1 1 1 0 -1 422 516
"115" 157 2 4 1 1 1 1 1 422 516
"115" 158 1 2 1 1 0 1 1 322 453
"115" 158 1 2 1 1 1 1 1 322 453
"115" 159 2 4 0 1 0 1 1 1254 1108
"115" 159 2 4 0 1 1 0 1 1254 1108
"115" 160 1 1 0 1 0 0 1 352 576
"115" 160 1 1 0 1 1 0 1 352 576
"115" 161 2 4 1 1 0 0 1 359 818
"115" 161 2 4 1 1 1 1 1 359 818
"115" 162 1 3 0 -1 0 1 1 239 1105
"115" 162 1 3 0 -1 1 0 -1 239 1105
"115" 163 2 4 1 1 0 0 -1 364 568
"115" 163 2 4 1 1 1 1 1 364 568
"115" 164 1 2 1 1 0 1 1 458 361
"115" 164 1 2 1 1 1 1 1 458 361
"115" 165 2 3 0 1 0 1 1 762 1091
"115" 165 2 3 0 1 1 0 1 762 1091
"115" 166 2 4 0 1 1 0 1 108 446
"115" 166 2 4 0 1 1 0 1 108 446
"115" 167 2 2 0 -1 1 0 1 401 371
"115" 167 2 2 0 -1 1 0 -1 401 371
"115" 168 2 4 1 1 1 0 -1 0 534
"115" 168 2 4 1 1 1 1 1 0 534
"115" 169 1 2 0 1 0 1 1 433 785
"115" 169 1 2 0 1 1 0 1 433 785
"115" 170 2 3 1 1 0 0 1 124 377
"115" 170 2 3 1 1 1 1 1 124 377
"115" 171 1 1 0 1 0 1 1 43 1201
"115" 171 1 1 0 1 1 0 1 43 1201
"115" 172 1 4 0 -1 1 0 1 465 593
"115" 172 1 4 0 -1 1 0 -1 465 593
"115" 173 1 2 0 1 1 0 -1 750 1060
"115" 173 1 2 0 1 1 0 1 750 1060
"115" 174 2 3 0 1 0 0 1 323 595
"115" 174 2 3 0 1 1 0 1 323 595
"115" 175 2 4 1 1 1 0 1 85 606
"115" 175 2 4 1 1 1 1 1 85 606
"115" 176 2 4 1 1 1 1 1 349 789
"115" 176 2 4 1 1 1 1 1 349 789
"115" 177 2 1 0 -1 1 1 1 487 623
"115" 177 2 1 0 -1 1 0 -1 487 623
"115" 178 2 2 1 -1 1 0 -1 395 699
"115" 178 2 2 1 -1 1 1 -1 395 699
"115" 179 2 4 1 1 1 1 -1 499 585
"115" 179 2 4 1 1 1 1 1 499 585
"115" 180 1 1 0 1 0 1 1 0 802
"115" 180 1 1 0 1 1 0 1 0 802
"115" 181 2 4 1 1 0 0 1 541 474
"115" 181 2 4 1 1 1 1 1 541 474
"115" 182 1 3 0 -1 0 1 1 394 1193
"115" 182 1 3 0 -1 1 0 -1 394 1193
"115" 183 2 4 1 1 0 0 -1 382 563
"115" 183 2 4 1 1 1 1 1 382 563
"115" 184 2 3 0 1 1 1 1 882 837
"115" 184 2 3 0 1 1 0 1 882 837
"115" 185 2 1 1 -1 1 0 1 601 853
"115" 185 2 1 1 -1 1 1 -1 601 853
"115" 186 2 2 0 -1 1 1 -1 286 840
"115" 186 2 2 0 -1 1 0 -1 286 840
"115" 187 2 4 1 1 1 0 -1 60 393
"115" 187 2 4 1 1 1 1 1 60 393
"115" 188 1 2 1 1 0 1 1 328 504
"115" 188 1 2 1 1 1 1 1 328 504
"115" 189 2 4 1 1 0 1 1 525 810
"115" 189 2 4 1 1 1 1 1 525 810
"115" 190 2 3 0 1 1 1 1 380 388
"115" 190 2 3 0 1 1 0 1 380 388
"115" 191 1 2 1 1 0 0 1 475 338
"115" 191 1 2 1 1 1 1 1 475 338
"115" 192 2 4 1 1 0 1 1 373 1073
"115" 192 2 4 1 1 1 1 1 373 1073
"115" 193 1 1 1 1 0 1 1 370 946
"115" 193 1 1 1 1 1 1 1 370 946
"115" 194 2 2 0 -1 0 1 1 418 819
"115" 194 2 2 0 -1 1 0 -1 418 819
"115" 195 2 4 1 1 1 0 -1 319 415
"115" 195 2 4 1 1 1 1 1 319 415
"115" 196 1 2 0 1 0 1 1 605 626
"115" 196 1 2 0 1 1 0 1 605 626
"115" 197 2 2 1 -1 0 0 1 357 329
"115" 197 2 2 1 -1 1 1 -1 357 329
"115" 198 1 1 0 1 0 1 -1 43 586
"115" 198 1 1 0 1 1 0 1 43 586
"115" 199 2 2 0 -1 0 0 1 111 966
"115" 199 2 2 0 -1 1 0 -1 111 966
"115" 200 2 4 1 1 1 0 -1 310 913
"115" 200 2 4 1 1 1 1 1 310 913
"116" 1 1 2 1 1 NA NA NA 1075 860
"116" 2 1 2 1 1 1 1 1 780 1091
"116" 3 1 2 0 1 1 1 1 592 1287
"116" 4 1 4 0 -1 1 0 1 608 1459
"116" 5 1 1 0 1 1 0 -1 776 1434
"116" 6 2 1 1 -1 0 0 1 1354 1415
"116" 7 1 2 1 1 0 1 -1 782 941
"116" 8 1 2 0 1 1 1 1 624 1229
"116" 9 1 3 1 -1 1 0 1 633 1218
"116" 10 1 1 0 1 1 1 -1 760 1190
"116" 11 1 2 1 1 1 0 1 485 270
"116" 12 1 2 1 1 1 1 1 704 477
"116" 13 1 2 1 1 1 1 1 486 821
"116" 14 1 2 1 1 1 1 1 578 883
"116" 15 1 3 1 -1 1 1 1 345 865
"116" 16 1 2 1 1 1 1 -1 629 1376
"116" 17 1 3 1 -1 1 1 1 470 1122
"116" 18 1 1 1 1 1 1 -1 592 1172
"116" 19 1 1 1 1 1 1 1 631 838
"116" 20 1 1 1 1 1 1 1 395 616
"116" 21 1 3 1 -1 1 1 1 658 771
"116" 22 1 3 1 -1 1 1 -1 450 886
"116" 23 1 3 1 -1 1 1 -1 440 652
"116" 24 1 3 1 -1 1 1 -1 442 818
"116" 25 1 1 0 1 1 1 -1 352 754
"116" 26 1 3 0 -1 1 0 1 1 772
"116" 29 1 2 1 1 1 1 1 416 685
"116" 30 1 2 1 1 1 1 1 409 743
"116" 31 2 1 1 -1 0 1 1 547 1415
"116" 32 2 4 0 1 1 1 -1 761 1231
"116" 33 2 3 1 1 1 0 1 847 753
"116" 34 2 3 0 1 1 1 1 691 511
"116" 35 2 3 1 1 1 0 1 658 733
"116" 36 2 4 1 1 1 1 1 461 603
"116" 37 2 4 0 1 1 1 1 743 856
"116" 38 1 1 1 1 0 0 1 387 385
"116" 39 1 4 0 -1 1 1 1 360 232
"116" 40 1 1 1 1 1 0 -1 701 375
"116" 41 1 1 0 1 1 1 1 307 235
"116" 42 2 3 0 1 0 0 1 6 934
"116" 43 1 1 1 1 0 0 1 424 943
"116" 44 1 1 0 1 1 1 1 557 910
"116" 45 1 2 1 1 1 0 1 485 356
"116" 46 1 3 1 -1 1 1 1 441 957
"116" 47 1 1 0 1 1 1 -1 637 590
"116" 48 1 4 1 -1 1 0 1 448 274
"116" 49 1 4 0 -1 1 1 -1 206 330
"116" 50 1 1 1 1 1 0 -1 261 429
"116" 51 1 1 1 1 1 1 1 353 429
"116" 52 1 1 1 1 1 1 1 378 29
"116" 53 1 3 1 -1 1 1 1 511 847
"116" 54 2 3 1 1 0 1 -1 624 747
"116" 55 2 2 1 -1 1 1 1 673 1438
"116" 56 2 4 0 1 1 1 -1 777 529
"116" 57 2 3 0 1 1 0 1 318 374
"116" 58 2 4 1 1 1 0 1 325 385
"116" 59 2 4 0 1 1 1 1 362 377
"116" 60 1 3 1 -1 0 0 1 290 311
"116" 61 1 1 1 1 1 1 -1 599 323
"116" 62 1 1 0 1 1 1 1 1045 1059
"116" 63 1 1 1 1 1 0 1 329 735
"116" 65 2 4 0 1 0 1 1 789 522
"116" 66 2 4 1 1 1 0 1 237 341
"116" 67 2 1 0 -1 1 1 1 313 438
"116" 68 1 3 1 -1 0 0 -1 1264 616
"116" 69 1 1 1 1 1 1 -1 608 360
"116" 70 1 2 1 1 1 1 1 432 886
"116" 71 1 2 1 1 1 1 1 631 835
"116" 72 1 2 1 1 1 1 1 349 271
"116" 73 1 4 0 -1 1 1 1 289 329
"116" 74 1 2 1 1 1 0 -1 418 412
"116" 75 1 2 0 1 1 1 1 1280 832
"116" 76 1 1 0 1 1 0 1 948 876
"116" 77 2 3 1 1 0 0 1 415 521
"116" 78 2 2 1 -1 1 1 1 651 1107
"116" 79 2 3 1 1 1 1 -1 742 638
"116" 80 2 4 1 1 1 1 1 407 31
"116" 81 2 1 0 -1 1 1 1 661 674
"116" 82 2 2 1 -1 1 0 -1 387 485
"116" 83 2 4 0 1 1 1 -1 367 797
"116" 84 1 1 1 1 0 0 1 464 354
"116" 85 1 1 1 1 1 1 1 318 254
"116" 86 2 4 1 1 0 1 1 391 497
"116" 87 1 2 0 1 0 1 1 380 473
"116" 88 1 1 1 1 1 0 1 381 291
"116" 89 1 1 1 1 1 1 1 379 423
"116" 90 1 1 1 1 1 1 1 363 377
"116" 91 1 1 1 1 1 1 1 251 278
"116" 92 1 1 0 1 1 1 1 979 624
"116" 93 1 1 1 1 1 0 1 595 614
"116" 94 1 1 0 1 1 1 1 526 563
"116" 95 1 3 1 -1 1 0 1 313 236
"116" 96 2 4 1 1 0 1 -1 662 439
"116" 97 2 2 0 -1 1 1 1 733 372
"116" 98 2 4 1 1 1 0 -1 668 307
"116" 99 1 3 1 -1 0 1 1 452 380
"116" 100 1 1 0 1 1 1 -1 277 261
"116" 101 1 1 1 1 1 0 1 634 390
"116" 102 1 3 0 -1 1 1 1 360 213
"116" 103 2 4 0 1 0 0 -1 694 288
"116" 104 1 3 1 -1 0 0 1 426 257
"116" 105 1 1 0 1 1 1 -1 381 139
"116" 106 2 2 0 -1 0 0 1 430 503
"116" 107 1 3 1 -1 0 0 -1 565 458
"116" 108 1 1 1 1 1 1 -1 582 481
"116" 109 1 1 1 1 1 1 1 493 403
"116" 110 1 1 1 1 1 1 1 311 281
"116" 111 1 1 0 1 1 1 1 305 272
"116" 112 2 4 0 1 0 0 1 573 861
"116" 113 2 3 1 1 1 0 1 360 363
"116" 114 2 1 0 -1 1 1 1 535 788
"116" 115 2 3 0 1 1 0 -1 546 878
"116" 116 2 3 1 1 1 0 1 455 535
"116" 117 2 3 1 1 1 1 1 386 500
"116" 118 2 1 1 -1 1 1 1 973 593
"116" 120 2 3 1 1 1 1 -1 403 80
"116" 121 2 3 1 1 1 1 1 900 469
"116" 124 1 2 0 1 0 1 1 410 407
"116" 125 1 2 0 1 1 0 1 303 263
"116" 126 1 1 1 1 1 0 1 340 614
"116" 127 1 1 0 1 1 1 1 297 388
"116" 128 1 1 1 1 1 0 1 423 524
"116" 129 1 1 0 1 1 1 1 313 327
"116" 130 1 1 1 1 1 0 1 408 402
"116" 131 1 3 1 -1 1 1 1 465 368
"116" 132 1 3 0 -1 1 1 -1 407 268
"116" 133 2 2 0 -1 0 0 -1 343 255
"116" 134 1 1 0 1 0 0 -1 303 296
"116" 135 1 1 1 1 1 0 1 744 714
"116" 136 1 1 1 1 1 1 1 368 358
"116" 137 1 3 1 -1 1 1 1 287 279
"116" 138 1 3 0 -1 1 1 -1 349 284
"116" 139 1 1 0 1 1 0 -1 308 444
"116" 140 1 1 1 1 1 0 1 624 802
"116" 141 1 1 1 1 1 1 1 488 406
"116" 142 1 3 1 -1 1 1 1 415 428
"116" 143 1 1 1 1 1 1 -1 570 838
"116" 144 1 1 1 1 1 1 1 346 690
"116" 147 1 1 1 1 1 1 1 728 782
"116" 148 1 3 1 -1 1 1 1 347 841
"116" 149 1 3 1 -1 1 1 -1 715 1045
"116" 150 1 3 1 -1 1 1 -1 488 1493
"116" 151 1 3 0 -1 1 1 -1 589 340
"116" 152 1 1 1 1 1 0 -1 1372 828
"116" 153 1 1 1 1 1 1 1 375 538
"116" 154 1 1 0 1 1 1 1 441 695
"116" 155 2 2 1 -1 0 0 1 1 931
"116" 156 1 2 1 1 0 1 -1 598 484
"116" 157 1 4 0 -1 1 1 1 570 362
"116" 158 1 3 0 -1 1 0 -1 203 578
"116" 159 2 2 0 -1 0 0 -1 335 407
"116" 160 1 3 0 -1 0 0 -1 300 265
"116" 161 1 1 0 1 1 0 -1 384 78
"116" 162 1 1 0 1 1 0 1 307 326
"116" 163 1 2 1 1 1 0 1 283 256
"116" 164 1 2 0 1 1 1 1 690 428
"116" 165 1 1 1 1 1 0 1 413 235
"116" 166 1 3 1 -1 1 1 1 486 283
"116" 167 1 1 1 1 1 1 -1 333 272
"116" 168 1 1 1 1 1 1 1 376 270
"116" 169 1 1 1 1 1 1 1 402 229
"116" 170 1 1 0 1 1 1 1 279 268
"116" 171 1 1 1 1 1 0 1 296 247
"116" 174 1 1 1 1 1 0 1 560 251
"116" 175 1 1 1 1 1 1 1 367 222
"116" 176 1 1 0 1 1 1 1 244 214
"116" 177 1 1 1 1 1 0 1 239 353
"116" 178 1 3 0 -1 1 1 1 118 248
"116" 179 1 1 0 1 1 0 -1 449 506
"116" 180 1 3 1 -1 1 0 1 71 252
"116" 181 1 3 1 -1 1 1 -1 463 448
"116" 182 1 3 1 -1 1 1 -1 483 245
"116" 183 2 2 1 -1 0 1 -1 350 311
"116" 184 2 4 0 1 1 1 -1 500 343
"116" 185 2 4 0 1 1 0 1 400 212
"116" 186 1 1 0 1 0 0 1 41 719
"116" 187 1 1 0 1 1 0 1 386 214
"116" 188 2 4 1 1 0 0 1 52 246
"116" 189 2 4 0 1 1 1 1 418 293
"116" 190 1 1 1 1 0 0 1 288 181
"116" 191 1 3 1 -1 1 1 1 417 216
"116" 194 1 1 1 1 1 0 1 299 165
"116" 195 1 1 0 1 1 1 1 272 1019
"116" 196 1 1 1 1 1 0 1 315 322
"116" 197 1 1 0 1 1 1 1 181 460
"116" 198 1 3 1 -1 1 0 1 643 351
"116" 199 1 2 1 1 1 1 -1 376 352
"116" 200 1 1 0 1 1 1 1 603 364
"117" 1 2 2 0 -1 NA NA NA 1013 1141
"117" 2 2 3 0 1 1 0 -1 582 1394
"117" 3 1 1 0 1 0 0 1 515 780
"117" 4 1 2 0 1 1 0 1 688 781
"117" 5 2 3 1 1 0 0 1 549 577
"117" 6 2 3 0 1 1 1 1 589 398
"117" 7 2 4 1 1 1 0 1 1050 543
"117" 8 1 4 1 -1 0 1 1 373 573
"117" 11 2 3 1 1 1 1 -1 297 744
"117" 12 1 3 0 -1 0 1 1 451 849
"117" 13 2 4 1 1 0 0 -1 634 1202
"117" 14 2 4 1 1 1 1 1 539 812
"117" 15 2 1 1 -1 1 1 1 595 1358
"117" 16 1 1 1 1 0 1 -1 485 702
"117" 17 1 1 0 1 1 1 1 440 618
"117" 18 2 2 0 -1 0 0 1 491 736
"117" 19 1 2 1 1 0 0 -1 317 746
"117" 20 1 2 1 1 1 1 1 350 413
"117" 21 1 2 0 1 1 1 1 342 635
"117" 22 2 3 0 1 0 0 1 596 794
"117" 23 1 2 1 1 0 0 1 362 597
"117" 24 1 2 1 1 1 1 1 591 456
"117" 25 1 2 1 1 1 1 1 445 605
"117" 26 1 2 0 1 1 1 1 373 589
"117" 27 2 3 1 1 0 0 1 311 1261
"117" 28 2 3 1 1 1 1 1 358 400
"117" 29 2 3 0 1 1 1 1 377 780
"117" 30 1 2 1 1 0 0 1 560 740
"117" 31 1 2 1 1 1 1 1 277 538
"117" 32 1 2 0 1 1 1 1 282 1131
"117" 33 2 3 0 1 0 0 1 275 358
"117" 34 2 4 0 1 1 0 1 224 395
"117" 35 1 1 1 1 0 0 1 283 888
"117" 36 1 3 0 -1 1 1 1 504 405
"117" 37 1 2 1 1 1 0 -1 352 635
"117" 38 1 2 0 1 1 1 1 427 373
"117" 39 2 3 1 1 0 0 1 916 1060
"117" 40 2 3 1 1 1 1 1 525 383
"117" 41 2 3 0 1 1 1 1 452 445
"117" 42 2 4 1 1 1 0 1 419 476
"117" 43 1 4 0 -1 0 1 1 632 698
"117" 44 2 2 0 -1 0 0 -1 350 352
"117" 45 1 1 0 1 0 0 -1 374 531
"117" 46 2 1 0 -1 0 0 1 320 388
"117" 47 2 4 1 1 1 0 -1 417 476
"117" 48 2 4 0 1 1 1 1 301 351
"117" 49 2 1 1 -1 1 0 1 498 785
"117" 50 1 1 1 1 0 1 -1 365 349
"117" 51 1 1 1 1 1 1 1 384 399
"117" 52 1 4 0 -1 1 1 1 455 555
"117" 53 1 1 1 1 1 0 -1 429 934
"117" 54 1 1 1 1 1 1 1 1260 728
"117" 55 1 4 1 -1 1 1 1 350 700
"117" 56 2 4 0 1 0 1 -1 419 423
"117" 57 2 3 1 1 1 0 1 455 406
"117" 58 2 1 1 -1 1 1 1 512 773
"117" 59 1 4 0 -1 0 1 -1 510 1091
"117" 60 1 3 0 -1 1 0 -1 802 490
"117" 61 2 1 1 -1 0 0 -1 343 570
"117" 62 2 1 1 -1 1 1 -1 418 455
"117" 63 2 4 0 1 1 1 -1 411 725
"117" 64 1 1 0 1 0 0 1 456 364
"117" 65 2 4 0 1 0 0 1 349 374
"117" 66 1 2 1 1 0 0 1 326 448
"117" 67 1 2 1 1 1 1 1 402 541
"117" 68 1 4 0 -1 1 1 1 692 541
"117" 69 1 1 0 1 1 0 -1 330 430
"117" 70 2 2 1 -1 0 0 1 270 296
"117" 71 1 2 1 1 0 1 -1 339 384
"117" 72 1 2 1 1 1 1 1 398 482
"117" 73 1 4 1 -1 1 1 1 365 332
"117" 74 2 4 0 1 0 1 -1 364 549
"117" 75 2 1 1 -1 1 0 1 418 734
"117" 76 2 3 1 1 1 1 -1 490 968
"117" 77 1 3 0 -1 0 1 1 455 605
"117" 78 1 3 1 -1 1 0 -1 351 597
"117" 79 2 3 0 1 0 1 -1 333 391
"117" 80 2 1 1 -1 1 0 1 528 598
"117" 81 2 4 1 1 1 1 -1 398 1241
"117" 82 2 4 0 1 1 1 1 304 929
"117" 83 2 3 0 1 1 0 1 304 1098
"117" 84 1 1 1 1 0 0 1 314 305
"117" 85 1 4 1 -1 1 1 1 631 363
"117" 86 1 1 0 1 1 1 -1 382 579
"117" 87 2 3 0 1 0 0 1 398 518
"117" 88 2 3 1 1 1 0 1 321 502
"117" 89 1 2 1 1 0 1 1 352 460
"117" 90 1 3 0 -1 1 1 1 318 531
"117" 91 1 2 1 1 1 0 -1 363 677
"117" 92 1 3 0 -1 1 1 1 506 809
"117" 93 2 4 0 1 0 0 -1 349 411
"117" 94 2 3 1 1 1 0 1 327 391
"117" 95 2 1 1 -1 1 1 1 336 751
"117" 96 2 3 0 1 1 1 -1 258 500
"117" 97 2 2 1 -1 1 0 1 342 256
"117" 98 2 3 1 1 1 1 -1 360 574
"117" 99 2 3 1 1 1 1 1 355 654
"117" 100 2 3 1 1 1 1 1 297 413
"117" 101 2 2 1 -1 1 1 1 381 778
"117" 102 2 2 0 -1 1 1 -1 354 780
"117" 103 2 3 0 1 1 0 -1 462 384
"117" 104 2 4 1 1 1 0 1 390 649
"117" 105 2 4 0 1 1 1 1 321 792
"117" 106 2 3 1 1 1 0 1 501 439
"117" 107 2 3 0 1 1 1 1 273 405
"117" 108 2 4 1 1 1 0 1 358 461
"117" 109 2 1 1 -1 1 1 1 287 846
"117" 110 2 1 1 -1 1 1 -1 243 336
"117" 111 2 4 0 1 1 1 -1 271 719
"117" 112 2 1 1 -1 1 0 1 402 335
"117" 113 2 3 1 1 1 1 -1 548 745
"117" 114 2 3 0 1 1 1 1 422 342
"117" 115 2 4 1 1 1 0 1 377 327
"117" 116 2 4 0 1 1 1 1 338 685
"117" 117 2 3 0 1 1 0 1 351 345
"117" 118 1 1 1 1 0 0 1 237 393
"117" 119 1 3 1 -1 1 1 1 286 350
"117" 120 1 1 1 1 1 1 -1 431 601
"117" 121 1 1 1 1 1 1 1 236 268
"117" 122 1 4 0 -1 1 1 1 290 514
"117" 123 1 1 1 1 1 0 -1 258 288
"117" 124 1 1 1 1 1 1 1 309 316
"117" 125 1 1 1 1 1 1 1 326 285
"117" 126 1 4 0 -1 1 1 1 244 633
"117" 127 1 1 1 1 1 0 -1 275 389
"117" 128 1 1 1 1 1 1 1 291 497
"117" 129 1 1 0 1 1 1 1 280 368
"117" 130 1 2 0 1 1 0 1 377 600
"117" 131 1 1 1 1 1 0 1 361 615
"117" 132 1 3 0 -1 1 1 1 343 354
"117" 133 1 1 0 1 1 0 -1 414 366
"117" 134 2 3 0 1 0 0 1 263 417
"117" 135 1 2 1 1 0 0 1 381 399
"117" 136 1 3 0 -1 1 1 1 273 879
"117" 137 1 2 1 1 1 0 -1 451 378
"117" 138 1 2 1 1 1 1 1 394 431
"117" 139 1 2 1 1 1 1 1 372 332
"117" 140 1 2 1 1 1 1 1 518 449
"117" 141 1 2 1 1 1 1 1 644 311
"117" 142 1 3 0 -1 1 1 1 496 795
"117" 143 1 2 0 1 1 0 -1 328 472
"117" 144 2 3 0 1 0 0 1 513 286
"117" 145 1 3 1 -1 0 0 1 818 320
"117" 146 2 1 1 -1 0 1 -1 313 628
"117" 147 2 3 0 1 1 1 -1 322 761
"117" 148 1 2 1 1 0 0 1 439 575
"117" 149 1 2 0 1 1 1 1 314 377
"117" 150 1 3 0 -1 1 0 1 328 522
"117" 151 1 4 0 -1 1 0 -1 353 439
"117" 152 1 1 0 1 1 0 -1 369 412
"117" 153 2 1 1 -1 0 0 1 449 510
"117" 154 1 4 0 -1 0 1 -1 616 680
"117" 155 2 3 0 1 0 0 -1 377 396
"117" 156 1 1 1 1 0 0 1 355 520
"117" 157 1 1 0 1 1 1 1 296 433
"117" 158 1 4 0 -1 1 0 1 324 392
"117" 159 1 3 1 -1 1 0 -1 356 384
"117" 160 1 3 0 -1 1 1 -1 371 441
"117" 161 2 3 0 1 0 0 -1 431 744
"117" 162 2 4 0 1 1 0 1 411 381
"117" 163 1 2 1 1 0 0 1 267 355
"117" 164 1 2 1 1 1 1 1 401 474
"117" 165 1 1 1 1 1 1 1 356 389
"117" 166 1 1 1 1 1 1 1 351 368
"117" 167 1 1 0 1 1 1 1 510 320
"117" 168 1 2 0 1 1 0 1 310 751
"117" 169 1 3 0 -1 1 0 1 356 751
"117" 170 1 1 1 1 1 0 -1 520 292
"117" 171 1 1 1 1 1 1 1 308 244
"117" 172 1 1 0 1 1 1 1 327 355
"117" 173 1 4 1 -1 1 0 1 392 383
"117" 174 2 2 0 -1 0 1 -1 278 423
"117" 175 1 2 0 1 0 0 -1 339 531
"117" 176 1 3 0 -1 1 0 1 401 460
"117" 177 2 4 0 1 0 0 -1 391 334
"117" 178 1 4 1 -1 0 0 1 297 507
"117" 179 2 4 0 1 0 1 -1 335 368
"117" 180 1 1 0 1 0 0 1 320 585
"117" 181 2 3 0 1 0 0 1 663 571
"117" 182 1 2 1 1 0 0 1 309 479
"117" 183 1 2 1 1 1 1 1 710 426
"117" 184 1 2 1 1 1 1 1 436 400
"117" 185 1 2 0 1 1 1 1 891 521
"117" 186 1 1 1 1 1 0 1 408 480
"117" 187 1 4 1 -1 1 1 1 307 450
"117" 188 2 4 1 1 0 1 -1 407 828
"117" 189 2 4 0 1 1 1 1 547 334
"117" 190 1 3 1 -1 0 0 1 441 349
"117" 191 1 3 0 -1 1 1 -1 398 580
"117" 192 2 4 0 1 0 0 -1 466 443
"117" 193 1 2 1 1 0 0 1 332 467
"117" 194 1 2 1 1 1 1 1 335 361
"117" 195 1 3 0 -1 1 1 1 342 329
"117" 196 2 4 0 1 0 0 -1 302 269
"117" 197 1 1 0 1 0 0 1 350 354
"117" 198 1 2 0 1 1 0 1 251 323
"117" 199 1 1 0 1 1 0 1 245 246
"117" 200 2 2 0 -1 0 0 1 289 373
"118" 2 1 4 1 -1 0 0 -1 453 532
"118" 2 1 4 1 -1 1 1 -1 453 532
"118" 3 1 2 0 1 1 1 -1 367 271
"118" 3 1 2 0 1 1 0 1 367 271
"118" 4 1 4 1 -1 1 0 1 308 266
"118" 4 1 4 1 -1 1 1 -1 308 266
"118" 5 1 4 0 -1 1 1 -1 517 274
"118" 5 1 4 0 -1 1 0 -1 517 274
"118" 6 1 2 1 1 1 0 -1 749 525
"118" 6 1 2 1 1 1 1 1 749 525
"118" 7 1 4 0 -1 1 1 1 834 381
"118" 7 1 4 0 -1 1 0 -1 834 381
"118" 8 1 2 0 1 1 0 -1 522 370
"118" 8 1 2 0 1 1 0 1 522 370
"118" 9 1 4 0 -1 1 0 1 283 222
"118" 9 1 4 0 -1 1 0 -1 283 222
"118" 10 1 2 1 1 1 0 -1 315 229
"118" 10 1 2 1 1 1 1 1 315 229
"118" 11 1 4 1 -1 1 1 1 564 357
"118" 11 1 4 1 -1 1 1 -1 564 357
"118" 12 1 2 1 1 1 1 -1 298 177
"118" 12 1 2 1 1 1 1 1 298 177
"118" 13 1 2 0 1 1 1 1 295 232
"118" 13 1 2 0 1 1 0 1 295 232
"118" 14 1 2 0 1 1 0 1 243 170
"118" 14 1 2 0 1 1 0 1 243 170
"118" 15 1 4 0 -1 1 0 1 222 53
"118" 15 1 4 0 -1 1 0 -1 222 53
"118" 16 1 3 0 -1 1 0 -1 257 428
"118" 16 1 3 0 -1 1 0 -1 257 428
"118" 17 1 2 0 1 1 0 -1 254 262
"118" 17 1 2 0 1 1 0 1 254 262
"118" 18 1 2 1 1 1 0 1 121 75
"118" 18 1 2 1 1 1 1 1 121 75
"118" 19 1 2 1 1 1 1 1 261 226
"118" 19 1 2 1 1 1 1 1 261 226
"118" 20 1 2 1 1 1 1 1 269 214
"118" 20 1 2 1 1 1 1 1 269 214
"118" 21 1 2 1 1 1 1 1 216 261
"118" 21 1 2 1 1 1 1 1 216 261
"118" 22 1 4 0 -1 1 1 1 212 103
"118" 22 1 4 0 -1 1 0 -1 212 103
"118" 23 1 3 1 -1 1 0 -1 284 279
"118" 23 1 3 1 -1 1 1 -1 284 279
"118" 24 1 1 0 1 1 1 -1 89 197
"118" 24 1 1 0 1 1 0 1 89 197
"118" 25 1 2 0 1 1 0 1 271 216
"118" 25 1 2 0 1 1 0 1 271 216
"118" 26 1 2 1 1 1 0 1 213 202
"118" 26 1 2 1 1 1 1 1 213 202
"118" 27 1 2 0 1 1 1 1 227 206
"118" 27 1 2 0 1 1 0 1 227 206
"118" 28 1 4 1 -1 1 0 1 196 262
"118" 28 1 4 1 -1 1 1 -1 196 262
"118" 29 1 4 1 -1 1 1 -1 284 214
"118" 29 1 4 1 -1 1 1 -1 284 214
"118" 30 1 2 1 1 1 1 -1 331 229
"118" 30 1 2 1 1 1 1 1 331 229
"118" 31 1 1 1 1 1 1 1 236 207
"118" 31 1 1 1 1 1 1 1 236 207
"118" 32 1 2 1 1 1 1 1 234 170
"118" 32 1 2 1 1 1 1 1 234 170
"118" 33 1 2 0 1 1 1 1 286 166
"118" 33 1 2 0 1 1 0 1 286 166
"118" 34 1 1 0 1 1 0 1 239 955
"118" 34 1 1 0 1 1 0 1 239 955
"118" 35 1 4 1 -1 1 0 1 299 121
"118" 35 1 4 1 -1 1 1 -1 299 121
"118" 36 1 1 1 1 1 1 -1 252 391
"118" 36 1 1 1 1 1 1 1 252 391
"118" 37 1 2 1 1 1 1 1 170 285
"118" 37 1 2 1 1 1 1 1 170 285
"118" 39 1 2 1 1 1 1 1 272 255
"118" 40 1 3 1 -1 1 1 1 227 183
"118" 40 1 3 1 -1 1 1 -1 227 183
"118" 41 1 4 0 -1 1 1 -1 245 59
"118" 41 1 4 0 -1 1 0 -1 245 59
"118" 42 1 4 0 -1 1 0 -1 246 86
"118" 42 1 4 0 -1 1 0 -1 246 86
"118" 43 1 2 1 1 1 0 -1 247 23
"118" 43 1 2 1 1 1 1 1 247 23
"118" 44 1 2 1 1 1 1 1 228 215
"118" 44 1 2 1 1 1 1 1 228 215
"118" 45 1 4 0 -1 1 1 1 276 195
"118" 45 1 4 0 -1 1 0 -1 276 195
"118" 46 1 2 0 1 1 0 -1 243 183
"118" 46 1 2 0 1 1 0 1 243 183
"118" 47 1 2 0 1 1 0 1 217 177
"118" 47 1 2 0 1 1 0 1 217 177
"118" 49 1 4 1 -1 1 1 -1 214 232
"118" 50 1 2 1 1 1 1 -1 216 216
"118" 50 1 2 1 1 1 1 1 216 216
"118" 51 1 2 1 1 1 1 1 391 253
"118" 51 1 2 1 1 1 1 1 391 253
"118" 52 1 2 0 1 1 1 1 232 250
"118" 52 1 2 0 1 1 0 1 232 250
"118" 53 1 2 0 1 1 0 1 228 209
"118" 53 1 2 0 1 1 0 1 228 209
"118" 54 1 2 1 1 1 0 1 215 120
"118" 54 1 2 1 1 1 1 1 215 120
"118" 55 1 2 1 1 1 1 1 250 250
"118" 55 1 2 1 1 1 1 1 250 250
"118" 56 1 2 0 1 1 1 1 267 188
"118" 56 1 2 0 1 1 0 1 267 188
"118" 57 1 1 1 1 1 0 1 242 1487
"118" 57 1 1 1 1 1 1 1 242 1487
"118" 58 1 2 0 1 1 1 1 223 246
"118" 58 1 2 0 1 1 0 1 223 246
"118" 59 1 4 0 -1 1 0 1 250 212
"118" 59 1 4 0 -1 1 0 -1 250 212
"118" 60 1 2 1 1 1 0 -1 265 99
"118" 60 1 2 1 1 1 1 1 265 99
"118" 61 1 2 1 1 1 1 1 309 152
"118" 61 1 2 1 1 1 1 1 309 152
"118" 62 1 2 0 1 1 1 1 222 900
"118" 62 1 2 0 1 1 0 1 222 900
"118" 63 1 1 1 1 1 0 1 241 229
"118" 63 1 1 1 1 1 1 1 241 229
"118" 64 1 1 1 1 1 1 1 198 98
"118" 64 1 1 1 1 1 1 1 198 98
"118" 65 1 4 1 -1 1 1 1 212 159
"118" 65 1 4 1 -1 1 1 -1 212 159
"118" 66 1 2 0 1 1 1 -1 217 89
"118" 66 1 2 0 1 1 0 1 217 89
"118" 67 1 2 1 1 1 0 1 244 296
"118" 67 1 2 1 1 1 1 1 244 296
"118" 68 1 4 0 -1 1 1 1 962 300
"118" 68 1 4 0 -1 1 0 -1 962 300
"118" 69 1 1 1 1 1 0 -1 245 163
"118" 69 1 1 1 1 1 1 1 245 163
"118" 70 1 2 1 1 1 1 1 357 212
"118" 70 1 2 1 1 1 1 1 357 212
"118" 71 1 2 1 1 1 1 1 279 107
"118" 71 1 2 1 1 1 1 1 279 107
"118" 72 1 2 1 1 1 1 1 285 52
"118" 72 1 2 1 1 1 1 1 285 52
"118" 73 1 2 0 1 1 1 1 361 336
"118" 73 1 2 0 1 1 0 1 361 336
"118" 74 1 2 0 1 1 0 1 408 257
"118" 74 1 2 0 1 1 0 1 408 257
"118" 75 1 4 0 -1 1 0 1 291 225
"118" 75 1 4 0 -1 1 0 -1 291 225
"118" 76 1 4 0 -1 1 0 -1 338 270
"118" 76 1 4 0 -1 1 0 -1 338 270
"118" 77 1 2 1 1 1 0 -1 376 231
"118" 77 1 2 1 1 1 1 1 376 231
"118" 78 1 2 1 1 1 1 1 305 278
"118" 78 1 2 1 1 1 1 1 305 278
"118" 79 1 4 0 -1 1 1 1 346 279
"118" 79 1 4 0 -1 1 0 -1 346 279
"118" 80 1 3 1 -1 1 0 -1 454 253
"118" 80 1 3 1 -1 1 1 -1 454 253
"118" 81 1 2 1 1 1 1 -1 266 320
"118" 81 1 2 1 1 1 1 1 266 320
"118" 82 1 3 1 -1 1 1 1 250 76
"118" 82 1 3 1 -1 1 1 -1 250 76
"118" 83 1 2 0 1 1 1 -1 230 189
"118" 83 1 2 0 1 1 0 1 230 189
"118" 84 1 4 1 -1 1 0 1 231 247
"118" 84 1 4 1 -1 1 1 -1 231 247
"118" 85 1 2 1 1 1 1 -1 294 243
"118" 85 1 2 1 1 1 1 1 294 243
"118" 86 1 1 1 1 1 1 1 253 213
"118" 86 1 1 1 1 1 1 1 253 213
"118" 87 1 3 1 -1 1 1 1 327 259
"118" 87 1 3 1 -1 1 1 -1 327 259
"118" 88 1 4 1 -1 1 1 -1 309 234
"118" 88 1 4 1 -1 1 1 -1 309 234
"118" 89 1 2 0 1 1 1 -1 256 235
"118" 89 1 2 0 1 1 0 1 256 235
"118" 90 1 4 0 -1 1 0 1 252 315
"118" 90 1 4 0 -1 1 0 -1 252 315
"118" 91 1 2 0 1 1 0 -1 244 263
"118" 91 1 2 0 1 1 0 1 244 263
"118" 92 1 1 1 1 1 0 1 85 236
"118" 92 1 1 1 1 1 1 1 85 236
"118" 93 1 1 1 1 1 1 1 290 249
"118" 93 1 1 1 1 1 1 1 290 249
"118" 94 1 3 1 -1 1 1 1 287 204
"118" 94 1 3 1 -1 1 1 -1 287 204
"118" 95 1 1 1 1 1 1 -1 309 238
"118" 95 1 1 1 1 1 1 1 309 238
"118" 96 1 3 0 -1 1 1 1 254 254
"118" 96 1 3 0 -1 1 0 -1 254 254
"118" 97 1 1 1 1 1 0 -1 238 220
"118" 97 1 1 1 1 1 1 1 238 220
"118" 98 1 3 0 -1 1 1 1 281 216
"118" 98 1 3 0 -1 1 0 -1 281 216
"118" 99 1 1 1 1 1 0 -1 207 245
"118" 99 1 1 1 1 1 1 1 207 245
"118" 100 1 1 0 1 1 1 1 263 224
"118" 100 1 1 0 1 1 0 1 263 224
"118" 101 1 2 0 1 1 0 1 170 75
"118" 101 1 2 0 1 1 0 1 170 75
"118" 102 1 2 1 1 1 0 1 220 54
"118" 102 1 2 1 1 1 1 1 220 54
"118" 106 1 2 0 1 1 1 1 523 258
"118" 106 1 2 0 1 1 0 1 523 258
"118" 107 1 3 1 -1 1 0 1 281 417
"118" 107 1 3 1 -1 1 1 -1 281 417
"118" 108 1 1 1 1 1 1 -1 268 173
"118" 108 1 1 1 1 1 1 1 268 173
"118" 109 1 3 1 -1 1 1 1 271 196
"118" 109 1 3 1 -1 1 1 -1 271 196
"118" 110 1 1 0 1 1 1 -1 230 245
"118" 110 1 1 0 1 1 0 1 230 245
"118" 111 1 3 1 -1 1 0 1 310 286
"118" 111 1 3 1 -1 1 1 -1 310 286
"118" 112 1 1 0 1 1 1 -1 404 442
"118" 112 1 1 0 1 1 0 1 404 442
"118" 113 1 2 1 1 1 0 1 280 279
"118" 113 1 2 1 1 1 1 1 280 279
"118" 114 1 1 1 1 1 1 1 288 228
"118" 114 1 1 1 1 1 1 1 288 228
"118" 115 1 1 0 1 1 1 1 203 99
"118" 115 1 1 0 1 1 0 1 203 99
"118" 116 1 1 1 1 1 0 1 124 130
"118" 116 1 1 1 1 1 1 1 124 130
"118" 117 1 2 0 1 1 1 1 197 254
"118" 117 1 2 0 1 1 0 1 197 254
"118" 118 1 1 0 1 1 0 1 139 82
"118" 118 1 1 0 1 1 0 1 139 82
"118" 119 1 1 1 1 1 0 1 454 232
"118" 119 1 1 1 1 1 1 1 454 232
"118" 120 1 3 1 -1 1 1 1 281 39
"118" 120 1 3 1 -1 1 1 -1 281 39
"118" 121 1 1 1 1 1 1 -1 201 172
"118" 121 1 1 1 1 1 1 1 201 172
"118" 122 1 1 1 1 1 1 1 195 198
"118" 122 1 1 1 1 1 1 1 195 198
"118" 124 1 2 0 1 1 0 1 241 351
"118" 125 1 1 0 1 1 0 1 454 252
"118" 125 1 1 0 1 1 0 1 454 252
"118" 126 1 3 0 -1 1 0 1 719 486
"118" 126 1 3 0 -1 1 0 -1 719 486
"118" 127 1 1 1 1 1 0 -1 291 248
"118" 127 1 1 1 1 1 1 1 291 248
"118" 128 1 3 0 -1 1 1 1 252 199
"118" 128 1 3 0 -1 1 0 -1 252 199
"118" 129 1 1 1 1 1 0 -1 254 289
"118" 129 1 1 1 1 1 1 1 254 289
"118" 130 1 1 1 1 1 1 1 186 215
"118" 130 1 1 1 1 1 1 1 186 215
"118" 131 1 3 1 -1 1 1 1 158 206
"118" 131 1 3 1 -1 1 1 -1 158 206
"118" 132 1 1 0 1 1 1 -1 240 133
"118" 132 1 1 0 1 1 0 1 240 133
"118" 133 1 4 0 -1 1 0 1 236 270
"118" 133 1 4 0 -1 1 0 -1 236 270
"118" 134 1 3 0 -1 1 0 -1 312 129
"118" 134 1 3 0 -1 1 0 -1 312 129
"118" 135 1 1 0 1 1 0 -1 437 354
"118" 135 1 1 0 1 1 0 1 437 354
"118" 136 1 3 0 -1 1 0 1 188 65
"118" 136 1 3 0 -1 1 0 -1 188 65
"118" 137 1 3 1 -1 1 0 -1 243 892
"118" 137 1 3 1 -1 1 1 -1 243 892
"118" 138 1 1 1 1 1 1 -1 283 186
"118" 138 1 1 1 1 1 1 1 283 186
"118" 139 1 1 0 1 1 1 1 112 220
"118" 139 1 1 0 1 1 0 1 112 220
"118" 140 1 1 0 1 1 0 1 318 296
"118" 140 1 1 0 1 1 0 1 318 296
"118" 141 1 1 1 1 1 0 1 290 196
"118" 141 1 1 1 1 1 1 1 290 196
"118" 142 1 1 1 1 1 1 1 349 222
"118" 142 1 1 1 1 1 1 1 349 222
"118" 143 1 2 0 1 1 1 1 266 333
"118" 143 1 2 0 1 1 0 1 266 333
"118" 144 1 1 1 1 1 0 1 267 251
"118" 144 1 1 1 1 1 1 1 267 251
"118" 145 1 1 0 1 1 1 1 137 144
"118" 145 1 1 0 1 1 0 1 137 144
"118" 146 1 2 1 1 1 0 1 229 243
"118" 146 1 2 1 1 1 1 1 229 243
"118" 147 1 4 1 -1 1 1 1 291 513
"118" 147 1 4 1 -1 1 1 -1 291 513
"118" 148 1 4 1 -1 1 1 -1 211 248
"118" 148 1 4 1 -1 1 1 -1 211 248
"118" 149 1 4 0 -1 1 1 -1 227 151
"118" 149 1 4 0 -1 1 0 -1 227 151
"118" 150 1 1 0 1 1 0 -1 283 302
"118" 150 1 1 0 1 1 0 1 283 302
"118" 151 1 1 0 1 1 0 1 316 201
"118" 151 1 1 0 1 1 0 1 316 201
"118" 152 1 2 1 1 1 0 1 134 316
"118" 152 1 2 1 1 1 1 1 134 316
"118" 153 1 4 0 -1 1 1 1 193 220
"118" 153 1 4 0 -1 1 0 -1 193 220
"118" 154 1 2 1 1 1 0 -1 329 321
"118" 154 1 2 1 1 1 1 1 329 321
"118" 155 1 2 0 1 1 1 1 370 251
"118" 155 1 2 0 1 1 0 1 370 251
"118" 161 1 2 0 1 1 0 1 391 564
"118" 161 1 2 0 1 1 0 1 391 564
"118" 162 1 1 1 1 1 0 1 318 391
"118" 162 1 1 1 1 1 1 1 318 391
"118" 163 1 2 1 1 1 1 1 230 303
"118" 163 1 2 1 1 1 1 1 230 303
"118" 164 1 2 1 1 1 1 1 399 263
"118" 164 1 2 1 1 1 1 1 399 263
"118" 165 1 4 0 -1 1 1 1 306 299
"118" 165 1 4 0 -1 1 0 -1 306 299
"118" 166 1 2 0 1 1 0 -1 210 269
"118" 166 1 2 0 1 1 0 1 210 269
"118" 167 1 2 0 1 1 0 1 353 218
"118" 167 1 2 0 1 1 0 1 353 218
"118" 168 1 2 1 1 1 0 1 141 76
"118" 168 1 2 1 1 1 1 1 141 76
"118" 169 1 2 0 1 1 1 1 294 156
"118" 169 1 2 0 1 1 0 1 294 156
"118" 170 1 1 1 1 1 0 1 342 40
"118" 170 1 1 1 1 1 1 1 342 40
"118" 171 1 3 1 -1 1 1 1 177 164
"118" 171 1 3 1 -1 1 1 -1 177 164
"118" 172 1 1 1 1 1 1 -1 348 268
"118" 172 1 1 1 1 1 1 1 348 268
"118" 173 1 1 1 1 1 1 1 277 0
"118" 173 1 1 1 1 1 1 1 277 0
"118" 174 1 3 1 -1 1 1 1 141 1362
"118" 174 1 3 1 -1 1 1 -1 141 1362
"118" 175 1 1 1 1 1 1 -1 228 89
"118" 175 1 1 1 1 1 1 1 228 89
"118" 176 1 1 1 1 1 1 1 219 486
"118" 176 1 1 1 1 1 1 1 219 486
"118" 177 1 1 1 1 1 1 1 209 212
"118" 177 1 1 1 1 1 1 1 209 212
"118" 178 1 1 1 1 1 1 1 279 220
"118" 178 1 1 1 1 1 1 1 279 220
"118" 179 1 1 1 1 1 1 1 298 74
"118" 179 1 1 1 1 1 1 1 298 74
"118" 180 1 3 0 -1 1 1 1 265 142
"118" 180 1 3 0 -1 1 0 -1 265 142
"118" 181 1 1 1 1 1 0 -1 191 980
"118" 181 1 1 1 1 1 1 1 191 980
"118" 182 1 1 1 1 1 1 1 317 260
"118" 182 1 1 1 1 1 1 1 317 260
"118" 183 1 3 0 -1 1 1 1 288 240
"118" 183 1 3 0 -1 1 0 -1 288 240
"118" 184 1 1 1 1 1 0 -1 322 304
"118" 184 1 1 1 1 1 1 1 322 304
"118" 185 1 1 1 1 1 1 1 367 317
"118" 185 1 1 1 1 1 1 1 367 317
"118" 186 1 1 1 1 1 1 1 322 256
"118" 186 1 1 1 1 1 1 1 322 256
"118" 187 1 3 1 -1 1 1 1 302 303
"118" 187 1 3 1 -1 1 1 -1 302 303
"118" 188 1 3 0 -1 1 1 -1 300 180
"118" 188 1 3 0 -1 1 0 -1 300 180
"118" 189 1 1 1 1 1 0 -1 232 228
"118" 189 1 1 1 1 1 1 1 232 228
"118" 190 1 1 1 1 1 1 1 327 182
"118" 190 1 1 1 1 1 1 1 327 182
"118" 191 1 1 0 1 1 1 1 315 177
"118" 191 1 1 0 1 1 0 1 315 177
"118" 192 1 1 0 1 1 0 1 263 440
"118" 192 1 1 0 1 1 0 1 263 440
"118" 193 1 1 1 1 1 0 1 561 365
"118" 193 1 1 1 1 1 1 1 561 365
"118" 194 1 1 1 1 1 1 1 208 37
"118" 194 1 1 1 1 1 1 1 208 37
"118" 195 1 1 0 1 1 1 1 256 148
"118" 195 1 1 0 1 1 0 1 256 148
"118" 196 1 3 1 -1 1 0 1 209 262
"118" 196 1 3 1 -1 1 1 -1 209 262
"118" 197 1 1 1 1 1 1 -1 444 377
"118" 197 1 1 1 1 1 1 1 444 377
"118" 198 1 1 1 1 1 1 1 315 157
"118" 198 1 1 1 1 1 1 1 315 157
"118" 199 1 1 1 1 1 1 1 295 50
"118" 199 1 1 1 1 1 1 1 295 50
"118" 200 1 3 0 -1 1 1 1 345 216
"118" 200 1 3 0 -1 1 0 -1 345 216
"119" 1 1 2 1 1 NA NA NA 936 842
"119" 2 1 4 1 -1 1 1 1 431 428
"119" 3 1 1 0 1 1 1 -1 389 843
"119" 6 2 3 1 1 1 1 -1 575 756
"119" 7 2 3 1 1 1 1 1 544 523
"119" 8 2 3 0 1 1 1 1 568 445
"119" 9 1 1 1 1 0 0 1 475 955
"119" 10 1 1 1 1 1 1 1 593 448
"119" 11 2 4 1 1 0 1 1 794 502
"119" 12 2 2 0 -1 1 1 1 553 462
"119" 13 1 1 1 1 0 0 -1 657 397
"119" 14 1 2 1 1 1 1 1 538 490
"119" 15 2 3 0 1 0 1 1 369 635
"119" 16 2 2 1 -1 1 0 1 523 365
"119" 17 2 4 1 1 1 1 -1 475 295
"119" 18 2 3 1 1 1 1 1 428 726
"119" 19 2 3 1 1 1 1 1 524 524
"119" 20 2 2 1 -1 1 1 1 630 618
"119" 21 1 4 1 -1 0 1 -1 587 693
"119" 22 2 2 1 -1 0 1 -1 486 717
"119" 23 1 2 0 1 0 1 -1 376 420
"119" 24 1 1 0 1 1 0 1 492 426
"119" 25 2 3 0 1 0 0 1 343 588
"119" 26 2 4 0 1 1 0 1 361 596
"119" 27 2 3 1 1 1 0 1 494 549
"119" 28 2 3 0 1 1 1 1 457 439
"119" 29 2 4 0 1 1 0 1 306 476
"119" 30 2 3 1 1 1 0 1 348 470
"119" 31 1 2 0 1 0 1 1 611 562
"119" 32 2 1 0 -1 0 0 1 475 564
"119" 33 1 2 1 1 0 0 -1 450 852
"119" 34 1 2 1 1 1 1 1 490 357
"119" 35 1 4 0 -1 1 1 1 481 932
"119" 36 2 3 1 1 0 0 -1 432 524
"119" 37 2 3 0 1 1 1 1 458 399
"119" 38 2 2 1 -1 1 0 1 295 455
"119" 39 2 3 1 1 1 1 -1 365 708
"119" 40 2 2 0 -1 1 1 1 319 695
"119" 41 2 1 1 -1 1 0 -1 527 519
"119" 42 1 1 1 1 0 1 -1 562 1093
"119" 43 1 1 1 1 1 1 1 436 405
"119" 44 1 3 1 -1 1 1 1 565 363
"119" 45 1 2 1 1 1 1 -1 503 629
"119" 46 1 2 1 1 1 1 1 377 373
"119" 47 2 3 0 1 0 1 1 450 477
"119" 48 1 2 0 1 0 0 1 429 511
"119" 49 1 1 1 1 1 0 1 374 488
"119" 50 1 3 1 -1 1 1 1 381 468
"119" 51 1 3 0 -1 1 1 -1 397 394
"119" 52 2 3 0 1 0 0 -1 368 388
"119" 53 2 4 1 1 1 0 1 344 551
"119" 54 2 4 0 1 1 1 1 373 435
"119" 55 1 3 0 -1 0 0 1 337 588
"119" 56 1 4 1 -1 1 0 -1 385 438
"119" 57 1 2 1 1 1 1 -1 363 305
"119" 58 1 2 1 1 1 1 1 432 602
"119" 59 1 3 1 -1 1 1 1 493 626
"119" 60 1 2 1 1 1 1 -1 612 586
"119" 61 1 3 0 -1 1 1 1 415 538
"119" 62 1 3 0 -1 1 0 -1 526 607
"119" 63 2 1 0 -1 0 0 -1 446 667
"119" 64 2 4 0 1 1 0 -1 457 537
"119" 65 1 3 1 -1 0 0 1 454 670
"119" 66 1 2 0 1 1 1 -1 655 501
"119" 67 1 3 0 -1 1 0 1 428 575
"119" 68 1 1 1 1 1 0 -1 608 1008
"119" 69 1 4 0 -1 1 1 1 487 444
"119" 70 1 1 1 1 1 0 -1 384 442
"119" 71 2 4 0 1 0 1 1 409 532
"119" 72 2 3 0 1 1 0 1 478 733
"119" 73 1 3 1 -1 0 0 1 361 870
"119" 74 1 2 1 1 1 1 -1 393 548
"119" 75 1 2 1 1 1 1 1 426 531
"119" 76 1 2 1 1 1 1 1 409 446
"119" 77 1 2 1 1 1 1 1 380 481
"119" 78 1 3 0 -1 1 1 1 343 471
"119" 79 1 2 0 1 1 0 -1 630 440
"119" 80 1 2 1 1 1 0 1 551 864
"119" 81 1 4 0 -1 1 1 1 357 488
"119" 82 1 3 1 -1 1 0 -1 335 623
"119" 83 1 2 1 1 1 1 -1 565 722
"119" 84 1 3 0 -1 1 1 1 354 690
"119" 85 1 2 1 1 1 0 -1 366 521
"119" 86 1 2 1 1 1 1 1 369 534
"119" 87 1 4 1 -1 1 1 1 471 472
"119" 88 1 2 1 1 1 1 -1 396 821
"119" 89 1 4 0 -1 1 1 1 392 643
"119" 90 1 3 1 -1 1 0 -1 383 614
"119" 91 1 2 0 1 1 1 -1 351 665
"119" 92 1 1 0 1 1 0 1 405 604
"119" 93 1 2 0 1 1 0 1 416 511
"119" 94 2 4 1 1 0 0 1 372 638
"119" 95 2 4 1 1 1 1 1 391 493
"119" 96 2 4 1 1 1 1 1 384 456
"119" 97 2 1 0 -1 1 1 1 573 499
"119" 98 2 4 1 1 1 0 -1 432 327
"119" 99 2 4 0 1 1 1 1 374 496
"119" 100 2 4 0 1 1 0 1 480 676
"119" 101 2 2 1 -1 1 0 1 400 384
"119" 102 2 4 1 1 1 1 -1 324 599
"119" 103 2 4 1 1 1 1 1 492 346
"119" 104 2 3 0 1 1 1 1 391 326
"119" 105 2 2 0 -1 1 0 1 322 272
"119" 106 2 4 1 1 1 0 -1 450 336
"119" 107 2 4 1 1 1 1 1 738 362
"119" 108 2 4 1 1 1 1 1 350 303
"119" 109 2 4 1 1 1 1 1 418 338
"119" 110 2 4 0 1 1 1 1 347 473
"119" 111 1 2 0 1 0 0 1 381 508
"119" 112 2 2 1 -1 0 0 1 333 307
"119" 113 2 4 1 1 1 1 -1 371 354
"119" 114 2 2 0 -1 1 1 1 336 339
"119" 115 1 3 1 -1 0 0 -1 424 456
"119" 116 1 2 1 1 1 1 -1 421 502
"119" 117 1 3 1 -1 1 1 1 337 498
"119" 118 1 2 1 1 1 1 -1 451 516
"119" 119 1 2 1 1 1 1 1 419 462
"119" 120 1 2 0 1 1 1 1 459 532
"119" 121 2 4 1 1 0 0 1 367 413
"119" 122 2 4 0 1 1 1 1 389 399
"119" 123 1 1 1 1 0 0 1 382 382
"119" 124 1 1 1 1 1 1 1 631 419
"119" 125 1 1 0 1 1 1 1 414 513
"119" 126 2 4 0 1 0 0 1 375 340
"119" 127 2 2 1 -1 1 0 1 355 593
"119" 128 2 3 0 1 1 1 -1 407 695
"119" 129 2 2 0 -1 1 0 1 300 337
"119" 130 2 4 1 1 1 0 -1 362 789
"119" 131 2 1 1 -1 1 1 1 357 560
"119" 132 2 4 0 1 1 1 -1 282 448
"119" 133 1 1 0 1 0 0 1 423 503
"119" 134 1 2 1 1 1 0 1 457 952
"119" 135 1 2 1 1 1 1 1 833 459
"119" 136 1 3 0 -1 1 1 1 344 653
"119" 137 1 2 0 1 1 0 -1 474 628
"119" 138 1 1 0 1 1 0 1 552 557
"119" 139 2 4 0 1 0 0 1 656 970
"119" 140 2 3 0 1 1 0 1 402 514
"119" 141 2 4 0 1 1 0 1 420 475
"119" 142 2 3 0 1 1 0 1 322 432
"119" 143 2 2 1 -1 1 0 1 337 482
"119" 144 2 3 0 1 1 1 -1 347 742
"119" 145 2 3 0 1 1 0 1 569 1086
"119" 146 1 2 1 1 0 0 1 478 761
"119" 147 1 2 1 1 1 1 1 406 475
"119" 148 1 2 1 1 1 1 1 535 552
"119" 149 1 3 0 -1 1 1 1 416 763
"119" 150 1 4 0 -1 1 0 -1 459 854
"119" 151 1 1 1 1 1 0 -1 589 1361
"119" 152 1 3 0 -1 1 1 1 499 707
"119" 153 2 3 0 1 0 0 -1 499 850
"119" 154 2 2 1 -1 1 0 1 642 1066
"119" 155 2 4 0 1 1 1 -1 446 751
"119" 156 2 3 1 1 1 0 1 622 681
"119" 157 2 3 0 1 1 1 1 463 560
"119" 158 1 1 1 1 0 0 1 406 460
"119" 159 1 4 0 -1 1 1 1 391 549
"119" 160 2 4 0 1 0 0 -1 410 699
"119" 161 1 2 1 1 0 0 1 323 919
"119" 162 1 1 0 1 1 1 1 368 753
"119" 163 1 2 1 1 1 0 1 437 626
"119" 164 1 2 0 1 1 1 1 693 426
"119" 165 1 3 1 -1 1 0 1 420 871
"119" 166 1 2 1 1 1 1 -1 379 628
"119" 167 1 2 1 1 1 1 1 645 575
"119" 168 1 3 1 -1 1 1 1 382 583
"119" 169 1 2 1 1 1 1 -1 416 639
"119" 170 1 4 1 -1 1 1 1 589 1181
"119" 171 1 1 1 1 1 1 -1 469 695
"119" 172 1 2 1 1 1 1 1 417 651
"119" 173 1 4 1 -1 1 1 1 502 475
"119" 174 1 1 0 1 1 1 -1 493 676
"119" 175 1 4 0 -1 1 0 1 428 661
"119" 176 1 3 1 -1 1 0 -1 501 676
"119" 177 1 1 1 1 1 1 -1 653 515
"119" 178 1 1 1 1 1 1 1 314 683
"119" 179 1 1 1 1 1 1 1 422 573
"119" 180 1 1 1 1 1 1 1 388 451
"119" 181 1 1 1 1 1 1 1 350 558
"119" 182 1 4 1 -1 1 1 1 362 726
"119" 183 1 1 0 1 1 1 -1 369 483
"119" 184 2 3 0 1 0 0 1 294 636
"119" 185 2 4 1 1 1 0 1 383 599
"119" 186 2 4 0 1 1 1 1 413 641
"119" 187 1 1 0 1 0 0 1 263 498
"119" 188 1 1 0 1 1 0 1 341 476
"119" 189 1 2 0 1 1 0 1 354 686
"119" 190 1 1 0 1 1 0 1 352 444
"119" 191 1 3 1 -1 1 0 1 347 561
"119" 192 1 1 0 1 1 1 -1 358 761
"119" 193 1 2 1 1 1 0 1 344 652
"119" 194 1 2 1 1 1 1 1 365 714
"119" 195 1 3 1 -1 1 1 1 341 901
"119" 196 1 2 0 1 1 1 -1 400 855
"119" 197 1 2 0 1 1 0 1 362 821
"119" 198 1 4 0 -1 1 0 1 440 689
"119" 199 1 3 1 -1 1 0 -1 332 474
"119" 200 1 2 1 1 1 1 -1 426 633
"120" 1 1 3 0 -1 NA NA NA 1051 1135
"120" 2 2 4 1 1 0 0 -1 378 171
"120" 3 2 2 1 -1 1 1 1 247 74
"120" 4 2 4 0 1 1 1 -1 14 308
"120" 5 1 1 1 1 0 0 1 313 146
"120" 6 1 1 0 1 1 1 1 14 15
"120" 7 2 4 0 1 0 0 1 18 549
"120" 8 2 4 1 1 1 0 1 462 123
"120" 9 2 4 1 1 1 1 1 61 158
"120" 10 2 4 1 1 1 1 1 523 836
"120" 11 2 2 0 -1 1 1 1 94 27
"120" 12 1 1 1 1 0 0 -1 540 681
"120" 13 1 3 0 -1 1 1 1 278 717
"120" 14 2 4 1 1 0 0 -1 748 20
"120" 15 2 4 1 1 1 1 1 72 492
"120" 16 2 2 1 -1 1 1 1 46 152
"120" 17 2 2 1 -1 1 1 -1 8 13
"120" 18 2 4 1 1 1 1 -1 147 613
"120" 19 2 4 0 1 1 1 1 160 102
"120" 20 1 1 0 1 0 0 1 289 197
"120" 21 2 4 0 1 0 0 1 36 25
"120" 22 2 4 1 1 1 0 1 123 522
"120" 25 2 2 0 -1 1 1 1 14 514
"120" 26 2 3 1 1 1 0 -1 97 57
"120" 27 1 1 1 1 0 1 1 7 0
"120" 28 1 3 1 -1 1 1 1 34 59
"120" 29 1 1 0 1 1 1 -1 15 103
"120" 30 2 2 1 -1 0 0 1 11 601
"120" 31 2 2 1 -1 1 1 -1 130 560
"120" 32 2 4 0 1 1 1 -1 467 876
"120" 33 1 1 1 1 0 0 1 508 667
"120" 34 1 1 1 1 1 1 1 572 1464
"120" 35 1 1 0 1 1 1 1 408 554
"120" 36 2 4 1 1 0 0 1 385 876
"120" 37 2 2 1 -1 1 1 1 498 776
"120" 38 2 4 1 1 1 1 -1 446 755
"120" 41 2 4 0 1 1 1 1 37 636
"120" 42 1 3 1 -1 0 0 1 316 301
"120" 43 1 1 1 1 1 1 -1 454 595
"120" 44 1 1 0 1 1 1 1 310 1312
"120" 45 2 2 0 -1 0 0 1 0 371
"120" 46 1 1 1 1 0 0 -1 0 650
"120" 47 1 3 0 -1 1 1 1 0 131
"120" 48 2 2 1 -1 0 0 -1 0 700
"120" 49 2 2 0 -1 1 1 -1 321 330
"120" 50 1 1 0 1 0 0 -1 528 863
"120" 51 2 2 1 -1 0 0 1 3 695
"120" 52 2 2 1 -1 1 1 -1 337 847
"120" 53 2 4 1 1 1 1 -1 466 460
"120" 54 2 4 0 1 1 1 1 418 660
"120" 55 1 1 1 1 0 0 1 545 99
"120" 56 1 3 1 -1 1 1 1 479 279
"120" 57 1 1 1 1 1 1 -1 233 458
"120" 58 1 1 1 1 1 1 1 297 405
"120" 59 1 1 0 1 1 1 1 232 561
"120" 60 2 4 0 1 0 0 1 295 384
"120" 61 1 3 1 -1 0 0 1 330 236
"120" 62 1 1 1 1 1 1 -1 280 603
"120" 63 1 1 1 1 1 1 1 251 486
"120" 64 1 1 1 1 1 1 1 193 612
"120" 65 1 1 1 1 1 1 1 98 952
"120" 66 1 3 1 -1 1 1 1 391 203
"120" 69 1 1 0 1 1 1 1 527 458
"120" 70 2 4 0 1 0 0 1 532 553
"120" 71 1 1 1 1 0 0 1 179 467
"120" 72 1 3 1 -1 1 1 1 164 1295
"120" 73 1 1 1 1 1 1 -1 327 651
"120" 74 1 1 1 1 1 1 1 454 457
"120" 75 1 1 0 1 1 1 1 327 0
"120" 76 2 4 0 1 0 0 1 339 434
"120" 77 1 1 0 1 0 0 1 0 861
"120" 78 1 3 0 -1 1 0 1 534 273
"120" 79 2 4 1 1 0 0 -1 353 470
"120" 80 2 4 0 1 1 1 1 502 586
"120" 81 2 2 0 -1 1 0 1 390 454
"120" 82 1 3 0 -1 0 0 -1 0 75
"120" 83 2 4 0 1 0 0 -1 340 90
"120" 84 1 1 1 1 0 0 1 287 1
"120" 85 1 1 1 1 1 1 1 146 8
"120" 86 1 1 1 1 1 1 1 16 112
"120" 87 1 1 0 1 1 1 1 7 170
"120" 88 1 3 0 -1 1 0 1 6 56
"120" 89 2 4 0 1 0 0 -1 25 98
"120" 90 2 4 1 1 1 0 1 18 91
"120" 91 2 4 1 1 1 1 1 85 49
"120" 92 2 2 1 -1 1 1 1 18 0
"120" 93 2 4 1 1 1 1 -1 45 64
"120" 94 2 4 0 1 1 1 1 53 144
"120" 95 1 1 0 1 0 0 1 83 79
"120" 96 1 3 0 -1 1 0 1 347 466
"120" 97 2 4 1 1 0 0 -1 81 66
"120" 98 2 4 0 1 1 1 1 64 67
"120" 99 2 4 0 1 1 0 1 4 364
"120" 100 1 3 1 -1 0 0 1 17 52
"120" 101 1 3 1 -1 1 1 -1 21 64
"120" 102 1 1 1 1 1 1 -1 81 46
"120" 103 1 3 1 -1 1 1 1 14 127
"120" 104 1 1 0 1 1 1 -1 97 101
"120" 105 2 2 1 -1 0 0 1 43 17
"120" 106 2 2 1 -1 1 1 -1 19 323
"120" 107 2 4 0 1 1 1 -1 45 53
"120" 108 1 3 1 -1 0 0 1 9 517
"120" 109 1 3 1 -1 1 1 -1 15 134
"120" 110 1 1 1 1 1 1 -1 210 13
"120" 111 1 1 1 1 1 1 1 61 129
"120" 112 1 1 1 1 1 1 1 14 30
"120" 113 1 1 1 1 1 1 1 30 145
"120" 114 1 1 1 1 1 1 1 49 46
"120" 115 1 1 1 1 1 1 1 10 162
"120" 116 1 1 1 1 1 1 1 43 3
"120" 117 1 1 1 1 1 1 1 14 51
"120" 118 1 3 1 -1 1 1 1 117 85
"120" 119 1 1 0 1 1 1 -1 58 87
"120" 120 2 2 0 -1 0 0 1 19 121
"120" 121 1 1 1 1 0 0 -1 18 32
"120" 122 1 3 0 -1 1 1 1 19 108
"120" 123 2 4 1 1 0 0 -1 15 479
"120" 124 2 2 0 -1 1 1 1 80 0
"120" 125 1 1 1 1 0 0 -1 25 810
"120" 126 1 1 0 1 1 1 1 18 7
"120" 127 2 4 0 1 0 0 1 13 579
"120" 128 1 3 1 -1 0 0 1 649 350
"120" 129 1 1 1 1 1 1 -1 324 537
"120" 130 1 1 1 1 1 1 1 479 18
"120" 131 1 1 1 1 1 1 1 63 938
"120" 132 1 1 1 1 1 1 1 288 1308
"120" 133 1 1 0 1 1 1 1 353 934
"120" 134 2 2 1 -1 0 0 1 500 506
"120" 135 1 1 0 1 0 1 -1 542 664
"120" 136 2 4 1 1 0 0 1 515 239
"120" 137 2 2 1 -1 1 1 1 0 612
"120" 138 2 4 0 1 1 1 -1 128 702
"120" 139 1 3 0 -1 0 0 1 284 102
"120" 140 1 3 0 -1 1 0 -1 336 895
"120" 141 2 4 0 1 0 0 -1 146 24
"120" 142 2 4 1 1 1 0 1 119 26
"120" 143 2 4 1 1 1 1 1 36 652
"120" 146 2 4 0 1 1 1 -1 320 703
"120" 147 1 1 1 1 0 0 1 0 710
"120" 148 1 1 0 1 1 1 1 386 498
"120" 149 2 4 0 1 0 0 1 319 158
"120" 150 1 1 0 1 0 0 1 657 625
"120" 151 2 4 0 1 0 0 1 365 678
"120" 152 2 4 0 1 1 0 1 499 606
"120" 153 1 1 1 1 0 0 1 280 520
"120" 154 1 3 0 -1 1 1 1 670 378
"120" 157 2 2 1 -1 0 0 1 19 9
"120" 158 2 4 0 1 1 1 -1 23 39
"120" 159 2 4 0 1 1 0 1 14 71
"120" 160 1 1 0 1 0 0 1 15 137
"120" 161 2 4 1 1 0 0 1 140 96
"120" 162 2 2 1 -1 1 1 1 110 60
"120" 163 2 4 0 1 1 1 -1 456 394
"120" 164 2 4 1 1 1 0 1 613 317
"120" 165 2 4 0 1 1 1 1 480 0
"120" 166 1 1 0 1 0 0 1 858 679
"120" 167 2 4 0 1 0 0 1 378 588
"120" 168 2 2 1 -1 1 0 1 65 216
"120" 169 2 4 0 1 1 1 -1 1011 600
"120" 170 1 1 1 1 0 0 1 4 520
"120" 171 1 1 0 1 1 1 1 376 560
"120" 172 2 4 1 1 0 0 1 3 626
"120" 173 2 2 1 -1 1 1 1 458 4
"120" 174 2 4 1 1 1 1 -1 409 552
"120" 175 2 2 1 -1 1 1 1 354 799
"120" 176 2 4 0 1 1 1 -1 439 766
"120" 177 1 1 0 1 0 0 1 1250 593
"120" 178 2 4 1 1 0 0 1 342 284
"120" 179 2 2 1 -1 1 1 1 431 502
"120" 180 2 2 1 -1 1 1 -1 275 657
"120" 181 2 4 0 1 1 1 -1 542 0
"120" 182 2 4 0 1 1 0 1 276 483
"120" 183 1 1 0 1 0 0 1 286 114
"120" 184 1 1 1 1 1 0 1 249 189
"120" 185 1 3 1 -1 1 1 1 308 132
"120" 186 1 1 0 1 1 1 -1 16 0
"120" 187 2 4 1 1 0 0 1 33 158
"120" 188 2 4 0 1 1 1 1 43 469
"120" 189 1 1 1 1 0 0 1 11 64
"120" 190 1 1 0 1 1 1 1 18 150
"120" 191 2 4 0 1 0 0 1 90 121
"120" 192 1 1 1 1 0 0 1 15 383
"120" 193 1 3 1 -1 1 1 1 414 413
"120" 194 1 3 0 -1 1 1 -1 374 507
"120" 195 2 2 1 -1 0 0 -1 412 459
"120" 196 2 2 1 -1 1 1 -1 396 298
"120" 197 2 4 0 1 1 1 -1 451 338
"120" 198 1 1 0 1 0 0 1 385 355
"120" 199 2 2 1 -1 0 0 1 458 416
"120" 200 2 4 0 1 1 1 -1 935 525
"121" 1 1 2 1 1 NA NA NA 536 748
"121" 2 2 4 1 1 0 1 1 836 1074
"121" 3 1 2 1 1 0 1 1 525 705
"121" 6 1 2 1 1 0 0 -1 712 952
"121" 7 2 4 1 1 0 1 1 715 1224
"121" 8 1 2 0 1 0 1 1 516 647
"121" 9 2 3 1 1 0 0 1 583 326
"121" 10 2 3 0 1 1 1 1 558 673
"121" 11 1 1 1 1 0 0 1 597 410
"121" 12 2 1 1 -1 0 1 1 361 354
"121" 13 2 1 1 -1 1 1 -1 337 507
"121" 14 2 4 1 1 1 1 -1 531 268
"121" 15 1 1 1 1 0 1 1 288 259
"121" 16 2 1 1 -1 0 1 1 338 403
"121" 17 2 4 0 1 1 1 -1 587 529
"121" 18 1 1 1 1 0 0 1 545 510
"121" 19 1 1 0 1 1 1 1 582 545
"121" 20 1 2 1 1 1 0 1 271 267
"121" 21 2 4 1 1 0 1 1 464 1157
"121" 22 1 1 1 1 0 1 1 504 1234
"121" 23 2 1 1 -1 0 1 1 548 756
"121" 24 2 4 1 1 1 1 -1 311 714
"121" 25 1 1 0 1 0 1 1 597 666
"121" 26 2 4 0 1 0 0 1 266 377
"121" 27 1 3 0 -1 0 0 1 1110 924
"121" 28 2 1 0 -1 0 0 -1 321 935
"121" 29 2 2 1 -1 1 0 -1 126 755
"121" 30 1 4 1 -1 0 1 -1 638 913
"121" 31 2 4 1 1 0 1 -1 448 519
"121" 32 1 3 1 -1 0 1 1 402 256
"121" 33 2 4 1 1 0 1 -1 518 613
"121" 34 1 3 1 -1 0 1 1 606 413
"121" 35 2 1 0 -1 0 1 -1 344 260
"121" 36 2 4 1 1 1 0 -1 504 289
"121" 37 1 3 0 -1 0 1 1 294 202
"121" 38 2 4 1 1 0 0 -1 281 186
"121" 39 1 2 1 1 0 1 1 654 899
"121" 40 2 4 0 1 0 1 1 591 701
"121" 41 2 4 1 1 1 0 1 497 377
"121" 42 2 3 1 1 1 1 1 326 275
"121" 43 1 2 0 1 0 1 1 463 242
"121" 44 2 4 1 1 0 0 1 239 185
"121" 45 2 1 0 -1 1 1 1 335 526
"121" 46 2 4 1 1 1 0 -1 451 623
"121" 47 1 3 1 -1 0 1 1 630 1414
"121" 48 1 1 1 1 1 1 -1 570 521
"121" 49 1 1 0 1 1 1 1 288 18
"121" 50 2 4 1 1 0 0 1 372 542
"121" 51 1 1 0 1 0 1 1 306 544
"121" 52 1 3 1 -1 1 0 1 326 188
"121" 53 2 3 0 1 0 1 -1 1013 549
"121" 54 2 3 1 1 1 0 1 485 950
"121" 55 1 2 0 1 0 1 1 444 581
"121" 56 1 1 0 1 1 0 1 324 617
"121" 57 2 2 1 -1 0 0 1 14 196
"121" 58 2 3 1 1 1 1 -1 276 498
"121" 59 2 3 0 1 1 1 1 983 620
"121" 60 2 4 1 1 1 0 1 797 526
"121" 61 1 4 1 -1 0 1 1 497 452
"121" 62 2 3 1 1 0 1 -1 950 835
"121" 63 2 3 1 1 1 1 1 816 1159
"121" 64 2 3 0 1 1 1 1 723 636
"121" 65 2 4 0 1 1 0 1 530 1171
"121" 66 2 4 1 1 1 0 1 470 1175
"121" 67 1 2 0 1 0 1 1 584 914
"121" 68 1 2 0 1 1 0 1 668 482
"121" 69 1 2 1 1 1 0 1 222 637
"121" 70 1 2 1 1 1 1 1 319 589
"121" 71 2 2 0 -1 0 1 1 329 211
"121" 72 2 3 1 1 1 0 -1 0 658
"121" 73 1 4 1 -1 0 1 1 240 382
"121" 74 1 2 1 1 1 1 -1 501 599
"121" 75 1 3 1 -1 1 1 1 390 715
"121" 76 1 4 0 -1 1 1 -1 503 512
"121" 77 1 2 1 1 1 0 -1 720 394
"121" 78 1 3 1 -1 1 1 1 443 663
"121" 79 1 2 1 1 1 1 -1 436 543
"121" 80 1 4 1 -1 1 1 1 164 157
"121" 81 2 3 0 1 0 1 -1 304 294
"121" 82 1 2 1 1 0 0 1 295 516
"121" 83 2 1 1 -1 0 1 1 337 1023
"121" 84 1 4 0 -1 0 1 -1 429 690
"121" 85 1 4 0 -1 1 0 -1 278 609
"121" 86 1 2 0 1 1 0 -1 328 990
"121" 87 2 3 1 1 0 0 1 675 917
"121" 88 2 3 1 1 1 1 1 751 473
"121" 89 2 2 1 -1 1 1 1 684 902
"121" 90 2 3 1 1 1 1 -1 725 722
"121" 91 1 2 0 1 0 1 1 435 862
"121" 92 1 2 0 1 1 0 1 139 570
"121" 93 2 4 0 1 0 0 1 624 1160
"121" 94 2 3 0 1 1 0 1 482 573
"121" 95 2 1 0 -1 1 0 1 412 515
"121" 96 2 3 0 1 1 0 -1 322 278
"121" 97 2 3 0 1 1 0 1 387 244
"121" 98 2 4 1 1 1 0 1 230 253
"121" 99 1 2 1 1 0 1 1 279 497
"121" 100 1 1 1 1 1 1 1 338 271
"121" 101 2 1 0 -1 0 1 1 276 783
"121" 102 2 4 1 1 1 0 -1 253 261
"121" 103 1 2 0 1 0 1 1 148 504
"121" 104 1 2 1 1 1 0 1 338 618
"121" 105 1 2 1 1 1 1 1 282 714
"121" 106 2 2 0 -1 0 1 1 907 564
"121" 107 1 1 0 1 0 0 -1 266 1220
"121" 108 1 2 1 1 1 0 1 286 426
"121" 109 2 4 1 1 0 1 1 162 976
"121" 110 2 4 1 1 1 1 1 361 665
"121" 111 2 3 1 1 1 1 1 309 372
"121" 112 2 4 1 1 1 1 1 108 551
"121" 113 1 1 1 1 0 1 1 256 645
"121" 114 2 3 0 1 0 1 1 838 873
"121" 115 2 3 1 1 1 0 1 362 699
"121" 116 2 4 1 1 1 1 1 226 273
"121" 117 2 1 0 -1 1 1 1 471 520
"121" 118 2 4 1 1 1 0 -1 393 1064
"121" 121 1 2 0 1 1 1 -1 341 440
"121" 122 1 1 1 1 1 0 1 250 334
"121" 123 2 2 1 -1 0 1 1 0 685
"121" 124 1 4 1 -1 0 1 -1 401 813
"121" 125 2 1 0 -1 0 1 -1 729 354
"121" 126 2 2 0 -1 1 0 -1 540 1074
"121" 127 1 2 0 1 0 0 -1 585 871
"121" 128 2 4 0 1 0 0 1 245 779
"121" 129 2 1 0 -1 1 0 1 1230 625
"121" 130 2 4 1 1 1 0 -1 195 454
"121" 131 1 2 1 1 0 1 1 468 777
"121" 132 2 1 1 -1 0 1 1 1357 780
"121" 133 2 3 0 1 1 1 -1 613 1168
"121" 134 2 4 0 1 1 0 1 370 295
"121" 136 2 3 1 1 1 0 1 324 281
"121" 137 1 2 0 1 0 1 1 222 425
"121" 138 1 4 1 -1 1 0 1 233 514
"121" 139 2 4 1 1 0 1 -1 266 374
"121" 140 1 1 1 1 0 1 1 902 589
"121" 141 2 1 0 -1 0 1 1 409 690
"121" 142 2 4 1 1 1 0 -1 138 421
"121" 143 1 4 0 -1 0 1 1 82 737
"121" 144 1 2 1 1 1 0 -1 233 641
"121" 145 1 2 0 1 1 1 1 1348 786
"121" 146 2 3 0 1 0 0 1 690 630
"121" 147 1 2 1 1 0 0 1 146 430
"121" 148 1 2 0 1 1 1 1 465 324
"121" 149 1 1 0 1 1 0 1 507 634
"121" 150 2 1 0 -1 0 0 1 0 527
"121" 151 1 4 1 -1 0 0 -1 218 73
"121" 152 1 2 0 1 1 1 -1 261 465
"121" 153 1 1 0 1 1 0 1 434 1180
"121" 154 2 4 1 1 0 0 1 305 654
"121" 155 2 3 0 1 1 1 1 512 663
"121" 156 2 3 1 1 1 0 1 456 753
"121" 157 2 3 0 1 1 1 1 430 807
"121" 158 2 4 1 1 1 0 1 394 732
"121" 159 2 4 0 1 1 1 1 700 246
"121" 160 1 4 1 -1 0 0 1 776 401
"121" 161 2 1 1 -1 0 1 -1 462 552
"121" 162 2 3 0 1 1 1 -1 297 589
"121" 163 2 4 1 1 1 0 1 293 672
"121" 164 1 1 1 1 0 1 1 722 1239
"121" 168 1 1 0 1 1 0 1 389 950
"121" 169 1 4 1 -1 1 0 1 290 571
"121" 170 2 4 1 1 0 1 -1 510 422
"121" 171 2 1 0 -1 1 1 1 438 632
"121" 172 1 1 0 1 0 0 -1 361 458
"121" 173 2 4 0 1 0 0 1 331 457
"121" 174 1 3 1 -1 0 0 1 674 455
"121" 175 2 1 0 -1 0 1 -1 524 646
"121" 176 2 1 1 -1 1 0 -1 483 509
"121" 177 1 1 0 1 0 1 -1 316 833
"121" 178 2 3 0 1 0 0 1 466 600
"121" 179 2 3 0 1 1 0 1 308 768
"121" 180 2 3 1 1 1 0 1 366 903
"121" 181 1 2 0 1 0 1 1 279 564
"121" 182 1 2 0 1 1 0 1 236 664
"121" 183 1 2 1 1 1 0 1 209 942
"121" 184 1 4 0 -1 1 1 1 550 663
"121" 185 1 2 0 1 1 0 -1 700 963
"121" 186 1 1 0 1 1 0 1 316 404
"121" 187 2 3 0 1 0 0 1 256 598
"121" 188 2 2 0 -1 1 0 1 0 307
"121" 189 1 2 0 1 0 0 -1 286 486
"121" 190 2 2 1 -1 0 0 1 288 0
"121" 191 1 4 0 -1 0 1 -1 1048 608
"121" 192 1 3 0 -1 1 0 -1 286 619
"121" 193 2 4 1 1 0 0 -1 319 426
"121" 194 1 1 0 1 0 1 1 81 522
"121" 195 2 4 0 1 0 0 1 888 383
"121" 196 2 3 0 1 1 0 1 247 186
"121" 197 1 2 0 1 0 0 1 68 538
"121" 198 2 4 1 1 0 0 1 26 28
"121" 199 2 2 0 -1 1 1 1 67 401
"121" 200 2 2 0 -1 1 0 -1 213 318
"122" 1 1 4 0 -1 NA NA NA 1029 782
"122" 2 2 4 0 1 0 0 -1 347 381
"122" 3 1 2 1 1 0 0 1 213 255
"122" 4 2 3 1 1 0 1 1 292 285
"122" 5 2 1 1 -1 1 1 1 296 283
"122" 6 1 1 1 1 0 1 -1 427 265
"122" 7 1 4 0 -1 1 1 1 283 220
"122" 8 1 1 1 1 1 0 -1 276 282
"122" 9 1 1 1 1 1 1 1 291 260
"122" 10 2 4 1 1 0 1 1 332 299
"122" 11 2 1 1 -1 1 1 1 312 296
"122" 12 2 3 0 1 1 1 -1 270 296
"122" 13 1 4 1 -1 0 0 1 279 259
"122" 14 1 2 0 1 1 1 -1 286 350
"122" 15 2 2 0 -1 0 0 1 402 375
"122" 16 1 1 0 1 0 0 -1 279 318
"122" 17 1 4 1 -1 1 0 1 308 283
"122" 18 2 3 1 1 0 1 -1 249 358
"122" 19 2 3 0 1 1 1 1 505 379
"122" 20 1 1 1 1 0 0 1 290 391
"122" 21 2 3 0 1 0 1 1 299 286
"122" 22 2 1 1 -1 1 0 1 256 232
"122" 23 1 4 1 -1 0 1 -1 316 386
"122" 24 1 2 1 1 1 1 -1 353 447
"122" 25 2 3 0 1 0 1 1 471 397
"122" 26 2 3 1 1 1 0 1 267 315
"122" 27 1 1 0 1 0 1 1 327 404
"122" 28 2 2 1 -1 0 0 1 252 279
"122" 29 1 3 0 -1 0 1 -1 315 369
"122" 30 2 4 0 1 0 0 -1 340 266
"122" 31 1 1 1 1 0 0 1 262 372
"122" 32 1 2 0 1 1 1 1 382 331
"122" 33 1 2 1 1 1 0 1 572 309
"122" 34 1 3 1 -1 1 1 1 304 235
"122" 35 1 4 0 -1 1 1 -1 357 218
"122" 36 1 2 0 1 1 0 -1 351 271
"122" 37 1 4 0 -1 1 0 1 352 198
"122" 38 1 2 1 1 1 0 -1 369 410
"122" 39 2 4 1 1 0 1 1 244 236
"122" 40 1 4 0 -1 0 1 1 312 340
"122" 41 1 4 1 -1 1 0 -1 545 344
"122" 42 2 4 0 1 0 1 -1 537 245
"122" 43 1 2 1 1 0 0 1 303 258
"122" 44 1 3 1 -1 1 1 1 266 232
"122" 45 2 3 1 1 0 1 -1 311 274
"122" 46 2 3 1 1 1 1 1 281 199
"122" 47 2 3 1 1 1 1 1 271 296
"122" 48 2 3 1 1 1 1 1 293 233
"122" 49 2 3 0 1 1 1 1 434 269
"122" 50 2 3 0 1 1 0 1 300 121
"122" 51 2 3 1 1 1 0 1 308 225
"122" 52 2 4 0 1 1 1 1 794 420
"122" 53 2 1 0 -1 1 0 1 310 125
"122" 54 1 2 0 1 0 0 -1 272 272
"122" 55 1 4 1 -1 1 0 1 318 422
"122" 59 2 3 1 1 0 1 -1 401 348
"122" 61 2 3 1 1 1 1 1 564 1376
"122" 62 2 1 1 -1 1 1 1 652 560
"122" 63 2 3 1 1 1 1 -1 436 494
"122" 64 2 3 1 1 1 1 1 419 536
"122" 65 2 3 0 1 1 1 1 574 594
"122" 66 2 3 0 1 1 0 1 424 365
"122" 67 2 4 0 1 1 0 1 245 434
"122" 68 1 1 1 1 0 0 1 640 331
"122" 69 2 4 1 1 0 1 1 335 425
"122" 70 2 4 1 1 1 1 1 291 277
"122" 71 1 1 1 1 0 1 1 258 268
"122" 72 2 4 0 1 0 1 1 285 310
"122" 73 1 3 0 -1 0 0 1 293 288
"122" 74 2 1 1 -1 0 0 -1 135 228
"122" 75 2 4 0 1 1 1 -1 245 294
"122" 76 1 2 1 1 0 0 1 292 254
"122" 77 1 2 0 1 1 1 1 364 268
"122" 78 2 3 0 1 0 0 1 264 213
"122" 79 2 3 0 1 1 0 1 254 394
"122" 80 2 3 1 1 1 0 1 301 256
"122" 81 1 1 0 1 0 1 1 277 242
"122" 82 2 4 0 1 0 0 1 249 268
"122" 83 2 4 1 1 1 0 1 242 253
"122" 84 1 1 1 1 0 1 1 295 324
"122" 85 1 2 0 1 1 1 1 221 239
"122" 86 2 3 1 1 0 0 1 136 406
"122" 87 2 3 0 1 1 1 1 378 401
"122" 88 1 4 1 -1 0 0 1 1 51
"122" 89 2 3 1 1 0 1 -1 258 384
"122" 90 1 3 1 -1 0 1 1 398 372
"122" 91 2 3 1 1 0 1 -1 402 258
"122" 92 2 4 0 1 1 1 1 348 296
"122" 93 2 1 1 -1 1 0 1 0 304
"122" 94 2 4 0 1 1 1 -1 454 648
"122" 95 1 2 0 1 0 0 1 426 314
"122" 96 2 3 0 1 0 0 1 287 341
"122" 97 2 1 1 -1 1 0 1 327 359
"122" 98 1 2 1 1 0 1 -1 269 305
"122" 99 1 2 1 1 1 1 1 473 270
"122" 100 2 3 1 1 0 1 1 0 389
"122" 101 1 4 0 -1 0 1 1 123 255
"122" 102 1 2 0 1 1 0 -1 300 364
"122" 103 2 4 1 1 0 0 1 226 1026
"122" 104 1 1 1 1 0 1 1 339 283
"122" 105 1 4 0 -1 1 1 1 249 121
"122" 109 1 2 1 1 1 0 -1 701 95
"122" 110 1 2 0 1 1 1 1 276 670
"122" 112 2 1 1 -1 0 0 1 251 387
"122" 113 2 1 0 -1 1 1 -1 399 357
"122" 114 2 4 0 1 1 0 -1 301 485
"122" 118 2 1 1 -1 1 1 1 513 584
"122" 120 2 4 1 1 1 1 -1 414 596
"122" 121 2 3 1 1 1 1 1 397 229
"122" 122 2 4 0 1 1 1 1 271 257
"122" 123 1 1 1 1 0 0 1 294 286
"122" 124 2 3 1 1 0 1 1 315 256
"122" 126 2 1 0 -1 1 1 1 362 336
"122" 127 2 1 1 -1 1 0 -1 287 279
"122" 128 2 4 0 1 1 1 -1 192 201
"122" 129 1 1 0 1 0 0 1 261 270
"122" 130 2 2 1 -1 0 0 1 1 265
"122" 131 2 4 0 1 1 1 -1 32 253
"122" 132 2 4 0 1 1 0 1 259 304
"122" 133 2 3 0 1 1 0 1 27 201
"122" 134 2 4 0 1 1 0 1 192 9
"122" 135 1 2 1 1 0 0 1 642 344
"122" 136 1 3 0 -1 1 1 1 246 207
"122" 137 2 4 0 1 0 0 -1 249 270
"122" 138 1 3 1 -1 0 0 1 283 87
"122" 139 2 2 1 -1 0 1 -1 168 365
"122" 140 2 4 0 1 1 1 -1 386 314
"122" 141 1 1 0 1 0 0 1 221 46
"122" 142 2 4 1 1 0 0 1 6 218
"122" 143 1 3 1 -1 0 1 1 382 67
"122" 144 2 4 0 1 0 1 -1 0 347
"122" 145 2 4 1 1 1 0 1 154 399
"122" 147 2 3 1 1 1 1 1 26 260
"122" 149 2 4 0 1 1 1 1 271 422
"122" 150 2 4 1 1 1 0 1 406 710
"122" 151 2 4 1 1 1 1 1 34 15
"122" 152 2 4 0 1 1 1 1 441 577
"122" 153 1 3 0 -1 0 0 1 278 366
"122" 154 2 4 1 1 0 0 -1 307 103
"122" 155 1 2 1 1 0 1 1 223 394
"122" 156 2 4 0 1 0 1 1 365 289
"122" 157 2 4 0 1 1 0 1 293 583
"122" 158 1 4 1 -1 0 0 1 487 373
"122" 159 2 1 0 -1 0 1 -1 230 731
"122" 160 2 4 1 1 1 0 -1 642 536
"122" 161 1 4 0 -1 0 1 1 736 902
"122" 162 2 4 0 1 0 0 -1 0 63
"122" 163 2 4 1 1 1 0 1 339 716
"122" 164 1 1 1 1 0 1 1 462 772
"122" 166 2 2 1 -1 0 1 1 167 219
"122" 167 2 4 1 1 1 1 -1 490 617
"122" 168 1 1 1 1 0 1 1 391 544
"122" 169 2 3 1 1 0 1 1 319 332
"122" 170 2 1 0 -1 1 1 1 365 330
"122" 171 2 4 0 1 1 0 -1 206 291
"122" 173 2 4 0 1 1 0 1 957 260
"122" 174 2 4 0 1 1 0 1 921 709
"122" 176 2 2 0 -1 1 0 1 410 453
"122" 177 1 2 0 1 0 0 -1 322 266
"122" 178 2 3 1 1 0 0 1 306 346
"122" 179 2 1 0 -1 1 1 1 515 315
"122" 180 2 3 0 1 1 0 -1 292 151
"122" 181 2 1 1 -1 1 0 1 45 649
"122" 182 2 3 1 1 1 1 -1 357 422
"122" 184 2 4 0 1 1 1 1 570 529
"122" 185 1 1 1 1 0 0 1 182 540
"122" 186 2 2 0 -1 0 1 1 357 19
"122" 187 2 2 1 -1 1 0 -1 887 718
"122" 188 2 4 0 1 1 1 -1 329 379
"122" 189 2 3 0 1 1 0 1 146 242
"122" 191 2 2 0 -1 1 0 1 1409 132
"122" 192 2 3 0 1 1 0 -1 427 471
"122" 193 2 2 0 -1 1 0 1 361 424
"122" 194 2 3 0 1 1 0 -1 46 262
"122" 195 2 3 1 1 1 0 1 382 347
"122" 196 2 3 1 1 1 1 1 515 304
"122" 197 2 1 1 -1 1 1 1 95 343
"122" 198 2 1 1 -1 1 1 -1 98 133
"122" 199 2 3 0 1 1 1 -1 525 258
"122" 200 2 1 1 -1 1 0 1 32 0
"124" 1 1 3 0 -1 NA NA NA 1301 1209
"124" 2 1 2 0 1 1 0 -1 103 356
"124" 3 2 4 1 1 0 0 1 212 367
"124" 4 2 3 0 1 1 1 1 274 475
"124" 5 2 4 1 1 1 0 1 319 280
"124" 6 2 4 0 1 1 1 1 302 236
"124" 7 2 3 0 1 1 0 1 363 288
"124" 8 2 3 0 1 1 0 1 253 311
"124" 9 2 1 1 -1 1 0 1 298 249
"124" 10 2 3 1 1 1 1 -1 335 252
"124" 11 2 4 1 1 1 1 1 308 354
"124" 12 2 3 1 1 1 1 1 367 445
"124" 13 2 3 0 1 1 1 1 427 1355
"124" 14 2 3 1 1 1 0 1 429 280
"124" 15 1 4 0 -1 0 1 1 629 372
"124" 16 1 1 0 1 1 0 -1 294 271
"124" 17 1 3 0 -1 1 0 1 4 26
"124" 18 1 1 1 1 1 0 -1 185 404
"124" 19 1 3 1 -1 1 1 1 314 659
"124" 20 1 4 0 -1 1 1 -1 268 910
"124" 21 1 2 1 1 1 0 -1 281 336
"124" 22 1 1 1 1 1 1 1 295 341
"124" 23 1 3 1 -1 1 1 1 352 1132
"124" 24 1 3 1 -1 1 1 -1 244 316
"124" 25 1 1 0 1 1 1 -1 319 243
"124" 26 1 1 1 1 1 0 1 229 411
"124" 27 1 1 0 1 1 1 1 349 332
"124" 28 1 2 1 1 1 0 1 225 276
"124" 29 2 2 1 -1 0 1 1 270 509
"124" 30 2 3 1 1 1 1 -1 308 366
"124" 31 2 3 1 1 1 1 1 348 1257
"124" 32 2 4 0 1 1 1 1 384 217
"124" 33 2 2 1 -1 1 0 1 0 390
"124" 34 2 2 1 -1 1 1 -1 297 418
"124" 35 2 1 1 -1 1 1 -1 253 356
"124" 36 2 3 0 1 1 1 -1 255 621
"124" 37 2 3 1 1 1 0 1 369 1367
"124" 38 2 3 0 1 1 1 1 310 670
"124" 39 2 2 1 -1 1 0 1 351 457
"124" 40 2 4 1 1 1 1 -1 1 952
"124" 41 2 3 1 1 1 1 1 358 354
"124" 42 2 3 0 1 1 1 1 391 265
"124" 43 2 2 1 -1 1 0 1 288 232
"124" 44 2 4 1 1 1 1 -1 880 304
"124" 45 2 2 1 -1 1 1 1 0 166
"124" 46 2 3 1 1 1 1 -1 489 435
"124" 47 2 4 1 1 1 1 1 311 294
"124" 48 2 4 1 1 1 1 1 318 285
"124" 49 2 3 0 1 1 1 1 558 532
"124" 50 2 3 0 1 1 0 1 322 204
"124" 51 2 3 0 1 1 0 1 459 391
"124" 52 2 3 0 1 1 0 1 298 310
"124" 53 2 3 1 1 1 0 1 318 251
"124" 54 2 4 1 1 1 1 1 410 1366
"124" 55 2 4 1 1 1 1 1 429 269
"124" 56 2 4 0 1 1 1 1 358 529
"124" 57 2 4 0 1 1 0 1 284 194
"124" 58 2 4 1 1 1 0 1 414 130
"124" 59 2 4 0 1 1 1 1 417 462
"124" 60 2 4 0 1 1 0 1 261 219
"124" 61 2 3 1 1 1 0 1 341 249
"124" 62 2 4 1 1 1 1 1 318 233
"124" 63 2 4 1 1 1 1 1 343 295
"124" 64 2 3 0 1 1 1 1 323 1283
"124" 65 1 2 1 1 0 0 1 588 462
"124" 66 2 1 0 -1 0 1 1 437 571
"124" 67 2 4 1 1 1 0 -1 297 437
"124" 69 2 2 1 -1 1 1 1 528 267
"124" 70 2 4 1 1 1 1 -1 336 287
"124" 71 2 4 1 1 1 1 1 362 279
"124" 72 2 4 1 1 1 1 1 287 302
"124" 73 2 3 0 1 1 1 1 447 363
"124" 74 2 2 1 -1 1 0 1 359 233
"124" 75 2 2 0 -1 1 1 -1 0 548
"124" 76 2 2 1 -1 1 0 -1 89 301
"124" 77 2 4 0 1 1 1 -1 347 335
"124" 78 2 4 1 1 1 0 1 0 43
"124" 79 2 4 0 1 1 1 1 0 1061
"124" 80 1 1 0 1 0 0 1 284 983
"124" 81 1 1 0 1 1 0 1 273 308
"124" 82 1 4 1 -1 1 0 1 350 343
"124" 83 1 2 1 1 1 1 -1 284 314
"124" 84 1 4 0 -1 1 1 1 284 267
"124" 85 1 1 0 1 1 0 -1 196 76
"124" 86 2 4 0 1 0 0 1 289 935
"124" 87 2 4 0 1 1 0 1 281 1256
"124" 88 2 4 0 1 1 0 1 337 192
"124" 89 1 2 1 1 0 0 1 483 478
"124" 90 1 4 1 -1 1 1 1 101 277
"124" 91 1 2 1 1 1 1 -1 502 1477
"124" 94 2 4 0 1 0 1 1 581 386
"124" 95 2 2 1 -1 1 0 1 374 249
"124" 96 2 4 1 1 1 1 -1 512 421
"124" 97 2 2 1 -1 1 1 1 454 374
"124" 98 2 4 1 1 1 1 -1 556 225
"124" 101 2 4 0 1 1 0 1 3 351
"124" 102 2 4 1 1 1 0 1 355 442
"124" 103 2 4 0 1 1 1 1 359 524
"124" 105 2 4 1 1 1 0 1 417 365
"124" 106 2 4 1 1 1 1 1 302 235
"124" 107 2 2 1 -1 1 1 1 588 475
"124" 108 2 4 0 1 1 1 -1 0 653
"124" 111 2 3 0 1 0 1 1 344 245
"124" 112 2 2 1 -1 1 0 1 305 436
"124" 113 2 4 0 1 1 1 -1 12 603
"124" 114 1 3 0 -1 0 0 1 1222 502
"124" 115 2 2 1 -1 0 0 -1 560 866
"124" 118 2 3 0 1 1 1 -1 383 414
"124" 119 2 4 0 1 1 0 1 3 1135
"124" 120 2 3 1 1 1 0 1 590 286
"124" 121 2 4 1 1 1 1 1 335 363
"124" 122 2 4 0 1 1 1 1 376 392
"124" 123 2 4 1 1 1 0 1 329 326
"124" 124 2 4 1 1 1 1 1 306 400
"124" 125 2 2 0 -1 1 1 1 387 509
"124" 126 2 4 1 1 1 0 -1 557 381
"124" 127 1 4 0 -1 0 1 1 236 294
"124" 128 1 1 1 1 1 0 -1 334 270
"124" 129 1 1 0 1 1 1 1 297 617
"124" 130 1 4 1 -1 1 0 1 337 326
"124" 131 2 4 0 1 0 1 -1 554 439
"124" 132 2 3 0 1 1 0 1 0 534
"124" 133 2 4 1 1 1 0 1 291 261
"124" 134 2 4 1 1 1 1 1 350 739
"124" 136 2 2 1 -1 1 1 1 7 1
"124" 137 2 2 1 -1 1 1 -1 90 0
"124" 138 1 2 1 1 0 1 -1 341 371
"124" 139 1 2 1 1 1 1 1 261 285
"124" 140 1 4 0 -1 1 1 1 364 192
"124" 141 1 2 1 1 1 0 -1 0 355
"124" 142 1 2 1 1 1 1 1 415 390
"124" 143 1 2 0 1 1 1 1 362 335
"124" 144 1 4 0 -1 1 0 1 0 377
"124" 145 1 2 0 1 1 0 -1 7 472
"124" 146 1 2 1 1 1 0 1 373 289
"124" 147 1 4 0 -1 1 1 1 272 379
"124" 148 2 4 1 1 0 0 -1 221 506
"124" 149 2 4 0 1 1 1 1 4 625
"124" 150 2 1 0 -1 1 0 1 354 319
"124" 151 2 3 1 1 1 0 -1 186 311
"124" 152 2 2 1 -1 1 1 1 329 378
"124" 153 2 2 1 -1 1 1 -1 309 566
"124" 154 2 4 1 1 1 1 -1 3 190
"124" 155 2 4 0 1 1 1 1 78 286
"124" 156 2 4 1 1 1 0 1 243 205
"124" 157 2 4 0 1 1 1 1 622 786
"124" 158 2 4 0 1 1 0 1 242 400
"124" 159 2 4 0 1 1 0 1 30 135
"124" 160 2 4 1 1 1 0 1 117 447
"124" 161 2 2 1 -1 1 1 1 418 217
"124" 162 2 4 1 1 1 1 -1 151 1285
"124" 163 2 1 0 -1 1 1 1 472 280
"124" 164 2 4 1 1 1 0 -1 3 416
"124" 165 2 3 0 1 1 1 1 393 608
"124" 166 2 4 0 1 1 0 1 395 52
"124" 167 1 4 1 -1 0 0 1 253 25
"124" 168 1 4 1 -1 1 1 -1 170 317
"124" 169 1 1 0 1 1 1 -1 360 254
"124" 170 1 2 1 1 1 0 1 262 307
"124" 171 1 2 1 1 1 1 1 384 217
"124" 172 2 3 1 1 0 1 1 495 453
"124" 173 1 2 0 1 0 1 1 419 454
"124" 174 2 2 1 -1 0 0 1 320 7
"124" 175 2 4 1 1 1 1 -1 329 41
"124" 176 2 2 1 -1 1 1 1 639 920
"124" 179 2 3 1 1 0 1 1 306 226
"124" 180 2 4 0 1 1 1 1 286 606
"124" 181 2 4 0 1 1 0 1 113 0
"124" 182 2 4 0 1 1 0 1 3 559
"124" 183 2 2 1 -1 1 0 1 311 692
"124" 184 2 4 1 1 1 1 -1 0 400
"124" 185 2 4 0 1 1 1 1 719 681
"124" 188 2 4 0 1 1 0 -1 42 515
"124" 189 2 3 1 1 1 0 1 319 316
"124" 190 2 3 0 1 1 1 1 417 449
"124" 191 2 2 0 -1 1 0 1 87 8
"124" 192 2 2 1 -1 1 0 -1 68 315
"124" 193 2 2 1 -1 1 1 -1 193 196
"124" 194 2 4 1 1 1 1 -1 730 155
"124" 195 2 4 1 1 1 1 1 749 712
"124" 196 2 1 0 -1 1 1 1 620 298
"124" 197 2 3 0 1 1 0 -1 204 1391
"124" 198 2 3 1 1 1 0 1 255 488
"124" 199 2 1 1 -1 1 1 1 407 435
"124" 200 2 2 0 -1 1 1 -1 956 657
"126" 3 1 3 0 -1 0 0 -1 856 906
"126" 4 1 4 1 -1 1 0 -1 208 555
"126" 5 1 2 0 1 1 1 -1 237 410
"126" 6 1 4 0 -1 1 0 1 298 1045
"126" 7 1 1 0 1 1 0 -1 247 1073
"126" 8 1 3 0 -1 1 0 1 516 876
"126" 9 1 1 1 1 1 0 -1 370 821
"126" 10 1 1 0 1 1 1 1 359 1237
"126" 11 1 2 1 1 1 0 1 333 751
"126" 12 1 3 0 -1 1 1 1 242 772
"126" 13 1 2 0 1 1 0 -1 696 1046
"126" 14 1 4 0 -1 1 0 1 325 1138
"126" 15 1 1 1 1 1 0 -1 256 1448
"126" 16 1 1 1 1 1 1 1 300 1077
"126" 17 1 2 1 1 1 1 1 337 1070
"126" 18 1 3 1 -1 1 1 1 254 881
"126" 19 1 2 0 1 1 1 -1 275 766
"126" 20 1 1 0 1 1 0 1 486 708
"126" 21 2 3 0 1 0 0 1 103 819
"126" 22 2 1 0 -1 1 0 1 234 794
"126" 23 2 4 0 1 1 0 -1 271 688
"126" 24 2 3 0 1 1 0 1 338 777
"126" 25 2 4 1 1 1 0 1 239 668
"126" 26 2 4 0 1 1 1 1 274 771
"126" 27 2 2 1 -1 1 0 1 221 1046
"126" 28 2 2 1 -1 1 1 -1 260 627
"126" 29 2 2 0 -1 1 1 -1 238 835
"126" 30 2 4 0 1 1 0 -1 431 1235
"126" 31 2 3 0 1 1 0 1 263 711
"126" 32 1 2 1 1 0 0 1 280 708
"126" 33 1 3 0 -1 1 1 1 265 1416
"126" 34 1 2 0 1 1 0 -1 277 695
"126" 35 1 3 0 -1 1 0 1 439 1183
"126" 36 1 2 1 1 1 0 -1 271 744
"126" 37 1 2 0 1 1 1 1 244 1157
"126" 38 1 1 0 1 1 0 1 238 941
"126" 39 1 2 0 1 1 0 1 250 905
"126" 40 2 4 0 1 0 0 1 314 982
"126" 41 2 3 1 1 1 0 1 301 871
"126" 42 2 2 0 -1 1 1 1 272 1252
"126" 43 2 1 1 -1 1 0 -1 218 940
"126" 44 2 4 0 1 1 1 -1 347 724
"126" 45 2 1 0 -1 1 0 1 231 614
"126" 46 2 1 0 -1 1 0 -1 0 1083
"126" 47 2 3 1 1 1 0 -1 261 1041
"126" 48 2 3 0 1 1 1 1 319 736
"126" 49 2 4 1 1 1 0 1 204 924
"126" 50 2 4 1 1 1 1 1 338 778
"126" 51 2 1 1 -1 1 1 1 255 937
"126" 52 2 2 1 -1 1 1 -1 294 1160
"126" 53 2 3 1 1 1 1 -1 305 803
"126" 54 2 3 0 1 1 1 1 289 836
"126" 55 2 2 0 -1 1 0 1 247 780
"126" 56 2 3 0 1 1 0 -1 1 897
"126" 57 2 4 0 1 1 0 1 0 1069
"126" 58 2 3 0 1 1 0 1 310 760
"126" 59 2 4 0 1 1 0 1 354 804
"126" 60 1 2 0 1 0 0 1 306 1041
"126" 61 1 1 0 1 1 0 1 305 787
"126" 62 1 1 0 1 1 0 1 286 747
"126" 63 1 2 1 1 1 0 1 273 1075
"126" 64 1 2 0 1 1 1 1 371 761
"126" 65 1 1 1 1 1 0 1 1 767
"126" 66 1 1 1 1 1 1 1 273 627
"126" 67 1 4 0 -1 1 1 1 271 1066
"126" 68 1 2 1 1 1 0 -1 830 1026
"126" 69 1 2 1 1 1 1 1 288 637
"126" 70 1 2 1 1 1 1 1 320 671
"126" 71 1 2 0 1 1 1 1 266 656
"126" 72 1 1 0 1 1 0 1 269 733
"126" 73 2 3 0 1 0 0 1 321 877
"126" 74 2 4 0 1 1 0 1 0 1035
"126" 75 2 3 0 1 1 0 1 346 870
"126" 76 2 4 0 1 1 0 1 325 932
"126" 77 2 2 0 -1 1 0 1 334 1221
"126" 80 2 3 0 1 1 0 -1 321 897
"126" 81 2 4 0 1 1 0 1 282 806
"126" 82 2 3 0 1 1 0 1 459 1046
"126" 83 1 2 0 1 0 0 1 283 459
"126" 84 1 1 1 1 1 0 1 320 841
"126" 85 1 1 1 1 1 1 1 328 727
"126" 86 1 3 0 -1 1 1 1 277 891
"126" 87 1 2 1 1 1 0 -1 325 864
"126" 88 1 4 1 -1 1 1 1 271 795
"126" 89 1 3 0 -1 1 1 -1 267 847
"126" 90 1 2 0 1 1 0 -1 294 781
"126" 91 1 1 1 1 1 0 1 248 906
"126" 92 1 1 1 1 1 1 1 278 724
"126" 93 1 1 1 1 1 1 1 273 836
"126" 94 1 3 0 -1 1 1 1 288 1056
"126" 95 1 1 1 1 1 0 -1 305 758
"126" 96 1 1 1 1 1 1 1 294 560
"126" 97 1 1 0 1 1 1 1 268 681
"126" 98 1 4 0 -1 1 0 1 267 1471
"126" 99 1 3 0 -1 1 0 -1 525 990
"126" 100 1 1 1 1 1 0 -1 248 698
"126" 101 1 1 0 1 1 1 1 263 581
"126" 102 2 3 1 1 0 0 1 334 805
"126" 103 2 1 1 -1 1 1 1 334 466
"126" 104 2 3 1 1 1 1 -1 289 521
"126" 105 2 3 0 1 1 1 1 283 615
"126" 106 2 4 1 1 1 0 1 360 974
"126" 107 2 1 0 -1 1 1 1 266 539
"126" 108 2 4 1 1 1 0 -1 228 648
"126" 109 2 2 0 -1 1 1 1 271 801
"126" 110 2 1 1 -1 1 0 -1 271 781
"126" 111 2 4 1 1 1 1 -1 244 870
"126" 112 2 1 1 -1 1 1 1 250 562
"126" 113 2 3 1 1 1 1 -1 358 1032
"126" 114 2 3 0 1 1 1 1 236 639
"126" 115 2 2 0 -1 1 0 1 263 660
"126" 116 2 4 0 1 1 0 -1 206 880
"126" 117 2 3 1 1 1 0 1 248 602
"126" 118 2 1 1 -1 1 1 1 299 761
"126" 119 2 3 1 1 1 1 -1 262 814
"126" 120 2 1 0 -1 1 1 1 236 654
"126" 121 2 4 0 1 1 0 -1 245 981
"126" 122 2 1 1 -1 1 0 1 368 874
"126" 123 2 1 1 -1 1 1 -1 273 700
"126" 124 2 3 0 1 1 1 -1 229 1042
"126" 125 2 4 0 1 1 0 1 0 843
"126" 126 2 3 0 1 1 0 1 244 756
"126" 127 2 4 0 1 1 0 1 255 856
"126" 128 1 1 1 1 0 0 1 359 532
"126" 129 1 1 1 1 1 1 1 269 464
"126" 130 1 3 1 -1 1 1 1 363 432
"126" 131 1 1 1 1 1 1 -1 281 738
"126" 132 1 1 1 1 1 1 1 288 653
"126" 133 1 1 1 1 1 1 1 278 521
"126" 134 1 1 1 1 1 1 1 259 484
"126" 135 1 1 0 1 1 1 1 577 648
"126" 136 1 2 1 1 1 0 1 287 610
"126" 137 1 2 1 1 1 1 1 327 613
"126" 138 1 2 0 1 1 1 1 283 680
"126" 139 1 1 1 1 1 0 1 268 724
"126" 140 1 3 1 -1 1 1 1 264 692
"126" 141 1 1 1 1 1 1 -1 253 409
"126" 142 1 3 1 -1 1 1 1 238 396
"126" 143 1 1 0 1 1 1 -1 287 865
"126" 144 1 3 0 -1 1 0 1 268 689
"126" 145 1 2 0 1 1 0 -1 263 675
"126" 146 2 3 1 1 0 0 1 356 643
"126" 147 2 3 0 1 1 1 1 278 569
"126" 148 2 1 1 -1 1 0 1 311 822
"126" 149 2 1 0 -1 1 1 -1 281 669
"126" 150 2 2 0 -1 1 0 -1 300 737
"126" 151 2 3 0 1 1 0 -1 321 803
"126" 152 2 4 0 1 1 0 1 305 576
"126" 153 2 3 1 1 1 0 1 361 787
"126" 154 2 3 0 1 1 1 1 343 466
"126" 155 2 4 1 1 1 0 1 256 657
"126" 156 2 2 0 -1 1 1 1 275 678
"126" 157 2 3 0 1 1 0 -1 247 521
"126" 158 2 4 1 1 1 0 1 325 548
"126" 159 2 4 1 1 1 1 1 273 732
"126" 160 2 4 1 1 1 1 1 266 541
"126" 161 2 4 1 1 1 1 1 272 443
"126" 162 2 4 0 1 1 1 1 277 516
"126" 163 1 4 0 -1 0 0 1 296 548
"126" 164 1 1 1 1 1 0 -1 225 590
"126" 165 1 1 1 1 1 1 1 226 522
"126" 166 1 1 0 1 1 1 1 277 911
"126" 167 1 2 0 1 1 0 1 340 515
"126" 168 1 1 0 1 1 0 1 272 904
"126" 169 2 3 0 1 0 0 1 305 455
"126" 170 2 4 0 1 1 0 1 262 446
"126" 171 2 2 0 -1 1 0 1 277 699
"126" 172 2 3 1 1 1 0 -1 329 978
"126" 173 2 3 1 1 1 1 1 297 497
"126" 174 2 1 1 -1 1 1 1 267 669
"126" 175 2 3 0 1 1 1 -1 283 385
"126" 176 2 2 1 -1 1 0 1 329 647
"126" 177 2 2 1 -1 1 1 -1 310 576
"126" 178 2 2 0 -1 1 1 -1 350 661
"126" 179 2 1 1 -1 1 0 -1 280 446
"126" 180 2 1 0 -1 1 1 -1 317 499
"126" 181 2 4 0 1 1 0 -1 0 692
"126" 182 2 3 0 1 1 0 1 271 462
"126" 183 1 1 1 1 0 0 1 314 533
"126" 184 1 1 1 1 1 1 1 283 652
"126" 185 1 1 1 1 1 1 1 273 554
"126" 186 1 1 1 1 1 1 1 284 483
"126" 187 1 1 1 1 1 1 1 303 450
"126" 188 1 3 0 -1 1 1 1 279 327
"126" 189 1 1 0 1 1 0 -1 268 597
"126" 190 1 4 0 -1 1 0 1 299 432
"126" 191 1 2 1 1 1 0 -1 241 848
"126" 192 1 3 0 -1 1 1 1 337 732
"126" 193 1 2 0 1 1 0 -1 150 579
"126" 194 2 3 1 1 0 0 1 271 641
"126" 195 2 3 0 1 1 1 1 307 554
"126" 196 2 4 0 1 1 0 1 349 574
"126" 197 2 3 0 1 1 0 1 245 571
"126" 198 1 1 1 1 0 0 1 382 605
"126" 199 1 1 1 1 1 1 1 287 371
"126" 200 1 1 1 1 1 1 1 374 438
"127" 2 2 4 0 1 0 1 1 471 1322
"127" 3 2 3 0 1 1 0 1 393 1137
"127" 4 1 1 0 1 0 0 1 44 828
"127" 5 2 4 1 1 0 0 1 443 878
"127" 6 2 4 0 1 1 1 1 700 935
"127" 7 2 4 0 1 1 0 1 372 824
"127" 8 1 1 0 1 0 0 1 408 835
"127" 9 2 1 0 -1 0 0 1 417 993
"127" 10 2 2 0 -1 1 0 -1 440 1184
"127" 11 2 4 0 1 1 0 -1 449 817
"127" 12 1 3 1 -1 0 0 1 280 878
"127" 13 2 1 1 -1 0 1 -1 762 1186
"127" 14 2 4 1 1 1 1 -1 530 1228
"127" 15 2 4 1 1 1 1 1 608 926
"127" 16 2 1 0 -1 1 1 1 788 1101
"127" 17 2 4 1 1 1 0 -1 522 1180
"127" 18 2 3 0 1 1 1 1 509 1140
"127" 19 1 1 1 1 0 0 1 509 1049
"127" 20 2 1 1 -1 0 1 1 767 990
"127" 21 2 3 1 1 1 1 -1 908 1208
"127" 22 2 4 1 1 1 1 1 655 1327
"127" 23 2 1 1 -1 1 1 1 604 1267
"127" 24 2 3 1 1 1 1 -1 623 1452
"127" 25 2 4 1 1 1 1 1 553 1138
"127" 26 2 4 1 1 1 1 1 413 947
"127" 27 2 4 1 1 1 1 1 552 1321
"127" 30 2 4 0 1 1 0 -1 283 864
"127" 31 2 4 0 1 1 0 1 386 1066
"127" 32 1 2 1 1 0 0 1 435 957
"127" 33 2 2 1 -1 0 1 1 500 1021
"127" 34 2 4 0 1 1 1 -1 528 969
"127" 35 2 3 0 1 1 0 1 348 819
"127" 36 2 4 1 1 1 0 1 259 895
"127" 37 2 3 1 1 1 1 1 574 1485
"127" 38 2 3 0 1 1 1 1 423 1054
"127" 39 2 4 1 1 1 0 1 211 1016
"127" 40 2 4 1 1 1 1 1 426 965
"127" 41 2 4 1 1 1 1 1 598 1025
"127" 42 2 1 1 -1 1 1 1 367 1291
"127" 43 2 4 0 1 1 1 -1 406 1013
"127" 44 2 3 1 1 1 0 1 350 930
"127" 45 2 1 0 -1 1 1 1 306 1382
"127" 46 2 4 1 1 1 0 -1 252 1221
"127" 47 2 4 1 1 1 1 1 628 1065
"127" 48 2 4 0 1 1 1 1 493 1112
"127" 49 2 4 0 1 1 0 1 203 837
"127" 50 2 3 0 1 1 0 1 444 829
"127" 51 2 2 0 -1 1 0 1 119 971
"127" 52 2 4 0 1 1 0 -1 272 1096
"127" 53 2 3 1 1 1 0 1 240 885
"127" 54 2 3 0 1 1 1 1 400 923
"127" 55 2 4 1 1 1 0 1 248 967
"127" 56 2 4 1 1 1 1 1 522 1079
"127" 57 2 1 0 -1 1 1 1 343 905
"127" 58 2 2 1 -1 1 0 -1 283 1043
"127" 59 2 4 0 1 1 1 -1 244 874
"127" 60 2 4 0 1 1 0 1 120 903
"127" 61 2 4 0 1 1 0 1 128 912
"127" 62 2 4 0 1 1 0 1 84 969
"127" 63 2 3 1 1 1 0 1 242 716
"127" 64 2 3 0 1 1 1 1 300 788
"127" 65 2 1 0 -1 1 0 1 263 1125
"127" 66 2 4 1 1 1 0 -1 59 1273
"127" 67 2 4 1 1 1 1 1 280 874
"127" 68 2 4 1 1 1 1 1 641 845
"127" 69 2 4 1 1 1 1 1 770 851
"127" 70 2 4 1 1 1 1 1 365 765
"127" 71 2 4 1 1 1 1 1 393 808
"127" 72 2 1 0 -1 1 1 1 504 589
"127" 73 2 4 1 1 1 0 -1 305 747
"127" 74 2 4 0 1 1 1 1 288 988
"127" 75 2 2 0 -1 1 0 1 37 726
"127" 76 2 2 1 -1 1 0 -1 1 802
"127" 77 2 4 0 1 1 1 -1 305 786
"127" 78 2 2 0 -1 1 0 1 254 1311
"127" 79 2 3 1 1 1 0 -1 272 701
"127" 80 2 4 1 1 1 1 1 254 798
"127" 81 2 4 1 1 1 1 1 235 581
"127" 82 2 2 1 -1 1 1 1 490 1054
"127" 83 2 4 1 1 1 1 -1 321 802
"127" 84 2 4 1 1 1 1 1 460 772
"127" 85 2 4 1 1 1 1 1 291 675
"127" 88 2 2 1 -1 1 1 1 419 1019
"127" 89 2 4 1 1 1 1 -1 683 798
"127" 90 2 4 0 1 1 1 1 459 822
"127" 91 2 2 0 -1 1 0 1 0 699
"127" 92 2 2 1 -1 1 0 -1 306 643
"127" 93 2 4 1 1 1 1 -1 436 873
"127" 94 2 2 0 -1 1 1 1 284 798
"127" 95 2 4 0 1 1 0 -1 287 774
"127" 96 1 2 0 1 0 0 1 220 779
"127" 97 1 1 0 1 1 0 1 278 808
"127" 98 1 4 0 -1 1 0 1 268 664
"127" 99 1 2 0 1 1 0 -1 283 661
"127" 100 1 1 1 1 1 0 1 43 599
"127" 101 1 3 1 -1 1 1 1 210 734
"127" 102 1 1 1 1 1 1 -1 403 624
"127" 103 1 1 0 1 1 1 1 265 860
"127" 104 1 1 1 1 1 0 1 225 937
"127" 105 2 2 0 -1 0 1 1 322 935
"127" 106 2 4 0 1 1 0 -1 275 934
"127" 107 1 1 0 1 0 0 1 259 767
"127" 108 2 4 1 1 0 0 1 270 1137
"127" 109 2 4 1 1 1 1 1 320 900
"127" 110 2 2 1 -1 1 1 1 561 806
"127" 111 2 4 0 1 1 1 -1 430 522
"127" 112 2 1 1 -1 1 0 1 251 403
"127" 113 1 4 1 -1 0 1 -1 441 609
"127" 114 2 3 1 1 0 1 -1 305 734
"127" 115 1 4 0 -1 0 1 1 140 820
"127" 116 1 4 0 -1 1 0 -1 228 908
"127" 117 1 1 1 1 1 0 -1 346 460
"127" 118 1 1 1 1 1 1 1 241 918
"127" 119 1 1 1 1 1 1 1 308 810
"127" 120 1 4 1 -1 1 1 1 274 699
"127" 121 1 2 1 1 1 1 -1 245 982
"127" 122 1 2 0 1 1 1 1 198 818
"127" 123 1 2 0 1 1 0 1 39 793
"127" 124 1 4 0 -1 1 0 1 157 898
"127" 125 1 1 1 1 1 0 -1 0 428
"127" 126 2 4 0 1 0 1 1 346 1017
"127" 127 2 2 0 -1 1 0 1 122 871
"127" 128 1 3 1 -1 0 0 -1 250 643
"127" 129 2 3 1 1 0 1 -1 367 665
"127" 130 2 3 0 1 1 1 1 252 647
"127" 131 1 1 1 1 0 0 1 210 1012
"127" 132 1 3 1 -1 1 1 1 359 962
"127" 133 1 2 0 1 1 1 -1 292 778
"127" 134 1 3 1 -1 1 0 1 264 845
"127" 135 2 2 1 -1 0 1 -1 427 723
"127" 136 2 4 1 1 1 1 -1 287 858
"127" 137 2 1 0 -1 1 1 1 270 722
"127" 138 2 4 0 1 1 0 -1 250 491
"127" 139 1 1 1 1 0 0 1 289 443
"127" 140 1 1 1 1 1 1 1 299 873
"127" 141 1 1 0 1 1 1 1 356 626
"127" 142 1 1 0 1 1 0 1 270 798
"127" 143 2 4 0 1 0 0 1 264 777
"127" 144 1 1 0 1 0 0 1 208 457
"127" 145 2 4 0 1 0 0 1 116 803
"127" 146 2 4 0 1 1 0 1 221 753
"127" 147 1 1 1 1 0 0 1 82 637
"127" 148 1 3 1 -1 1 1 1 199 790
"127" 149 1 1 0 1 1 1 -1 31 637
"127" 150 2 3 1 1 0 0 1 208 662
"127" 151 2 3 0 1 1 1 1 124 744
"127" 152 2 4 1 1 1 0 1 250 892
"127" 153 1 2 0 1 0 1 1 371 1180
"127" 154 2 4 0 1 0 0 1 296 872
"127" 155 2 1 1 -1 1 0 1 338 743
"127" 156 1 4 0 -1 0 1 -1 234 1007
"127" 157 1 3 1 -1 1 0 -1 220 405
"127" 158 1 3 1 -1 1 1 -1 312 724
"127" 159 1 2 0 1 1 1 -1 291 690
"127" 160 2 2 0 -1 0 0 1 3 647
"127" 161 1 1 0 1 0 0 -1 230 406
"127" 162 2 2 0 -1 0 0 1 0 287
"127" 163 2 1 0 -1 1 0 -1 234 500
"127" 164 2 4 0 1 1 0 -1 215 412
"127" 165 1 1 1 1 0 0 1 64 183
"127" 166 1 1 1 1 1 1 1 389 992
"127" 167 1 4 1 -1 1 1 1 277 996
"127" 168 1 1 1 1 1 1 -1 288 984
"127" 169 1 1 0 1 1 1 1 220 865
"127" 170 1 1 0 1 1 0 1 15 99
"127" 171 1 4 0 -1 1 0 1 400 1001
"127" 172 1 1 1 1 1 0 -1 130 350
"127" 173 1 1 0 1 1 1 1 250 772
"127" 174 1 2 0 1 1 0 1 0 1100
"127" 175 2 2 0 -1 0 0 1 238 701
"127" 176 1 2 1 1 0 0 -1 352 965
"127" 177 2 4 0 1 0 1 1 419 847
"127" 178 1 1 0 1 0 0 1 146 657
"127" 179 2 4 1 1 0 0 1 262 616
"127" 180 2 4 0 1 1 1 1 288 733
"127" 181 2 3 1 1 1 0 1 6 758
"127" 182 2 3 1 1 1 1 1 302 1214
"127" 183 2 1 1 -1 1 1 1 294 770
"127" 184 2 3 1 1 1 1 -1 380 785
"127" 185 2 3 0 1 1 1 1 314 815
"127" 186 2 3 1 1 1 0 1 17 691
"127" 187 2 3 1 1 1 1 1 109 748
"127" 188 2 2 1 -1 1 1 1 322 1055
"127" 189 2 3 1 1 1 1 -1 272 806
"127" 190 2 3 1 1 1 1 1 312 766
"127" 191 2 3 0 1 1 1 1 354 785
"127" 192 2 2 1 -1 1 0 1 131 901
"127" 193 1 2 1 1 0 1 -1 284 933
"127" 194 1 3 1 -1 1 1 1 0 1070
"127" 195 1 2 0 1 1 1 -1 237 1149
"127" 196 2 2 0 -1 0 0 1 123 1141
"127" 197 2 1 1 -1 1 0 -1 46 683
"127" 198 2 1 1 -1 1 1 -1 171 1025
"127" 199 2 3 0 1 1 1 -1 217 956
"127" 200 2 4 1 1 1 0 1 29 1200
"128" 1 1 2 1 1 NA NA NA 1133 701
"128" 2 1 2 0 1 1 1 1 381 392
"128" 3 1 4 1 -1 1 0 1 476 815
"128" 4 1 1 0 1 1 1 -1 421 640
"128" 5 1 3 0 -1 1 0 1 454 1059
"128" 6 1 1 1 1 1 0 -1 456 873
"128" 7 1 4 1 -1 1 1 1 426 514
"128" 8 1 1 1 1 1 1 -1 425 746
"128" 9 1 1 0 1 1 1 1 441 759
"128" 10 1 1 1 1 1 0 1 277 660
"128" 11 1 1 1 1 1 1 1 452 692
"128" 12 1 1 0 1 1 1 1 286 683
"128" 13 1 4 1 -1 1 0 1 304 593
"128" 14 1 1 1 1 1 1 -1 257 522
"128" 15 1 4 0 -1 1 1 1 326 821
"128" 16 1 4 1 -1 1 0 -1 299 785
"128" 17 1 1 0 1 1 1 -1 299 642
"128" 18 1 4 1 -1 1 0 1 637 829
"128" 19 1 4 1 -1 1 1 -1 326 606
"128" 20 1 1 1 1 1 1 -1 396 821
"128" 21 1 2 0 1 1 1 1 506 712
"128" 22 1 1 0 1 1 0 1 280 651
"128" 23 1 2 0 1 1 0 1 1379 1027
"128" 24 1 1 1 1 1 0 1 395 578
"128" 25 1 3 0 -1 1 1 1 452 499
"128" 26 1 4 1 -1 1 0 -1 342 776
"128" 27 1 4 0 -1 1 1 -1 288 521
"128" 28 1 1 0 1 1 0 -1 1366 1033
"128" 29 1 2 0 1 1 0 1 366 569
"128" 30 1 4 1 -1 1 0 1 371 632
"128" 31 1 1 0 1 1 1 -1 473 1005
"128" 32 1 4 1 -1 1 0 1 440 828
"128" 33 1 1 1 1 1 1 -1 320 604
"128" 34 1 2 1 1 1 1 1 395 1005
"128" 35 1 4 1 -1 1 1 1 946 1085
"128" 36 1 1 1 1 1 1 -1 483 1391
"128" 37 1 2 1 1 1 1 1 300 883
"128" 38 1 1 1 1 1 1 1 335 994
"128" 39 1 2 1 1 1 1 1 376 1029
"128" 40 1 1 1 1 1 1 1 394 885
"128" 41 1 2 1 1 1 1 1 309 877
"128" 42 1 1 0 1 1 1 1 414 994
"128" 43 1 1 1 1 1 0 1 390 904
"128" 44 1 2 1 1 1 1 1 398 1378
"128" 45 1 1 0 1 1 1 1 455 827
"128" 46 1 1 1 1 1 0 1 378 1059
"128" 49 1 4 0 -1 1 1 1 360 772
"128" 50 1 1 0 1 1 0 -1 369 749
"128" 51 1 1 1 1 1 0 1 369 1285
"128" 52 1 1 1 1 1 1 1 407 656
"128" 53 1 1 0 1 1 1 1 327 544
"128" 54 1 4 1 -1 1 0 1 1203 793
"128" 55 1 1 0 1 1 1 -1 348 871
"128" 56 1 2 0 1 1 0 1 440 1000
"128" 57 1 1 0 1 1 0 1 611 770
"128" 58 2 4 0 1 0 0 1 375 811
"128" 59 2 3 0 1 1 0 1 401 674
"128" 60 2 4 0 1 1 0 1 445 606
"128" 61 2 4 0 1 1 0 1 365 555
"128" 62 1 1 1 1 0 0 1 275 921
"128" 63 1 2 0 1 1 1 1 480 711
"128" 64 1 1 1 1 1 0 1 315 517
"128" 65 1 1 0 1 1 1 1 336 436
"128" 66 1 1 1 1 1 0 1 283 607
"128" 67 1 2 0 1 1 1 1 359 571
"128" 68 1 4 0 -1 1 0 1 483 604
"128" 69 1 1 0 1 1 0 -1 258 548
"128" 70 1 2 1 1 1 0 1 410 543
"128" 71 1 1 1 1 1 1 1 473 917
"128" 72 1 2 1 1 1 1 1 389 609
"128" 73 1 4 1 -1 1 1 1 306 703
"128" 74 1 3 0 -1 1 1 -1 475 1195
"128" 75 1 4 1 -1 1 0 -1 395 526
"128" 76 1 1 0 1 1 1 -1 378 735
"128" 77 1 1 0 1 1 0 1 378 481
"128" 78 1 4 1 -1 1 0 1 404 1495
