"NS" "Trial" "Step" "Choice1" "Choice2" "Resp1" "Resp2" "Reward" "RT1" "RT2"
"110" 1 "step_1_no_load" 1 2 1 NA NA 984 NA
"110" 1 "step_2_no_load" 3 4 0.594299910136 3 1 0.457620150462 784
"111" 1 "step_1_no_load" 1 2 1 NA NA 866 NA
"111" 1 "step_2_no_load" 3 4 0.511789129507 3 1 0.598297890399 787
"114" 1 "step_1_no_load" 1 2 -1 NA NA -1 NA
"116" 1 "step_1_no_load" 1 2 1 NA NA 1075 NA
"116" 1 "step_2_no_load" 3 4 0.594299910136 4 1 0.598297890399 860
"117" 1 "step_1_no_load" 1 2 2 NA NA 1013 NA
"117" 1 "step_2_no_load" 3 4 0.594299910136 4 0 0.511789129507 1141
"119" 1 "step_1_no_load" 1 2 1 NA NA 936 NA
"119" 1 "step_2_no_load" 3 4 0.594299910136 4 1 0.511789129507 842
"120" 1 "step_1_no_load" 1 2 1 NA NA 1051 NA
"120" 1 "step_2_no_load" 5 6 0.457620150462 5 0 0.598297890399 1135
"121" 1 "step_1_no_load" 1 2 1 NA NA 536 NA
"121" 1 "step_2_no_load" 3 4 0.598297890399 4 1 0.457620150462 748
"122" 1 "step_1_no_load" 1 2 1 NA NA 1029 NA
"122" 1 "step_2_no_load" 5 6 0.594299910136 6 0 0.457620150462 782
"124" 1 "step_1_no_load" 1 2 1 NA NA 1301 NA
"124" 1 "step_2_no_load" 5 6 0.598297890399 5 0 0.594299910136 1209
"126" 1 "step_1_no_load" 1 2 -1 NA NA -1 NA
"127" 1 "step_1_no_load" 1 2 -1 NA NA -1 NA
"128" 1 "step_1_no_load" 1 2 1 NA NA 1133 NA
"128" 1 "step_2_no_load" 3 4 0.594299910136 4 1 0.511789129507 701
"129" 1 "step_1_no_load" 1 2 -1 NA NA -1 NA
"130" 1 "step_1_no_load" 1 2 -1 NA NA -1 NA
"134" 1 "step_1_no_load" 1 2 1 NA NA 886 NA
"134" 1 "step_2_no_load" 3 4 0.457620150462 3 0 0.594299910136 892
"135" 1 "step_1_no_load" 1 2 1 NA NA 436 NA
"135" 1 "step_2_no_load" 3 4 0.511789129507 3 0 0.594299910136 399
"138" 1 "step_1_no_load" 1 2 -1 NA NA -1 NA
"139" 1 "step_1_no_load" 1 2 1 NA NA 644 NA
"139" 1 "step_2_no_load" 3 4 0.598297890399 4 0 0.594299910136 361
"140" 1 "step_1_no_load" 1 2 2 NA NA 878 NA
"140" 1 "step_2_no_load" 5 6 0.457620150462 6 1 0.594299910136 1047
"142" 1 "step_1_no_load" 1 2 -1 NA NA -1 NA
"143" 1 "step_1_no_load" 1 2 2 NA NA 604 NA
"143" 1 "step_2_no_load" 5 6 0.598297890399 6 1 0.457620150462 1034
"144" 1 "step_1_no_load" 1 2 1 NA NA 570 NA
"144" 1 "step_2_no_load" 3 4 0.511789129507 3 0 0.457620150462 636
"146" 1 "step_1_no_load" 1 2 1 NA NA 1319 NA
"146" 1 "step_2_no_load" 3 4 0.598297890399 3 0 0.511789129507 571
"148" 1 "step_1_no_load" 1 2 1 NA NA 734 NA
"148" 1 "step_2_no_load" 3 4 0.511789129507 3 1 0.598297890399 771
"150" 1 "step_1_no_load" 1 2 2 NA NA 795 NA
"150" 1 "step_2_no_load" 3 4 0.598297890399 4 1 0.594299910136 703
"151" 1 "step_1_no_load" 1 2 1 NA NA 1484 NA
"151" 1 "step_2_no_load" 3 4 0.598297890399 3 0 0.457620150462 877
"152" 1 "step_1_no_load" 1 2 1 NA NA 1339 NA
"152" 1 "step_2_no_load" 5 6 0.598297890399 5 0 0.511789129507 420
"153" 1 "step_1_no_load" 1 2 1 NA NA 1083 NA
"153" 1 "step_2_no_load" 5 6 0.511789129507 5 1 0.594299910136 1386
"154" 1 "step_1_no_load" 1 2 1 NA NA 670 NA
"154" 1 "step_2_no_load" 5 6 0.598297890399 6 0 0.457620150462 1306
"156" 1 "step_1_no_load" 1 2 1 NA NA 431 NA
"156" 1 "step_2_no_load" 3 4 0.594299910136 3 0 0.598297890399 486
"159" 1 "step_1_no_load" 1 2 1 NA NA 432 NA
"159" 1 "step_2_no_load" 5 6 0.594299910136 5 1 0.457620150462 665
"160" 1 "step_1_no_load" 1 2 1 NA NA 630 NA
"160" 1 "step_2_no_load" 3 4 0.598297890399 3 1 0.511789129507 639
"161" 1 "step_1_no_load" 1 2 2 NA NA 809 NA
"161" 1 "step_2_no_load" 5 6 0.457620150462 -1 -1 0.594299910136 -1
"165" 1 "step_1_no_load" 1 2 1 NA NA 1016 NA
"165" 1 "step_2_no_load" 3 4 0.511789129507 3 1 0.594299910136 857
"166" 1 "step_1_no_load" 1 2 1 NA NA 772 NA
"166" 1 "step_2_no_load" 5 6 0.457620150462 6 1 0.511789129507 737
"167" 1 "step_1_no_load" 1 2 -1 NA NA -1 NA
"169" 1 "step_1_no_load" 1 2 1 NA NA 1415 NA
"169" 1 "step_2_no_load" 3 4 0.511789129507 3 1 0.594299910136 1015
"170" 1 "step_1_no_load" 1 2 1 NA NA 1244 NA
"170" 1 "step_2_no_load" 3 4 0.511789129507 4 1 0.598297890399 730
"178" 1 "step_1_no_load" 1 2 2 NA NA 916 NA
"178" 1 "step_2_no_load" 5 6 0.598297890399 5 0 0.594299910136 1221
"180" 1 "step_1_no_load" 1 2 2 NA NA 1192 NA
"180" 1 "step_2_no_load" 5 6 0.594299910136 5 0 0.598297890399 1126
"182" 1 "step_1_no_load" 1 2 -1 NA NA -1 NA
"183" 1 "step_1_no_load" 1 2 -1 NA NA -1 NA
"184" 1 "step_1_no_load" 1 2 -1 NA NA -1 NA
"187" 1 "step_1_no_load" 1 2 1 NA NA 597 NA
"187" 1 "step_2_no_load" 5 6 0.594299910136 5 0 0.457620150462 649
"188" 1 "step_1_no_load" 1 2 2 NA NA 470 NA
"188" 1 "step_2_no_load" 5 6 0.457620150462 6 0 0.598297890399 529
"194" 1 "step_1_no_load" 1 2 1 NA NA 399 NA
"194" 1 "step_2_no_load" 5 6 0.594299910136 6 1 0.511789129507 597
"195" 1 "step_1_no_load" 1 2 -1 NA NA -1 NA
"199" 1 "step_1_no_load" 1 2 1 NA NA 748 NA
"199" 1 "step_2_no_load" 3 4 0.511789129507 3 0 0.598297890399 1021
"203" 1 "step_1_no_load" 1 2 -1 NA NA -1 NA
"206" 1 "step_1_no_load" 1 2 -1 NA NA -1 NA
"207" 1 "step_1_no_load" 1 2 -1 NA NA -1 NA
"208" 1 "step_1_no_load" 1 2 1 NA NA 606 NA
"208" 1 "step_2_no_load" 3 4 0.457620150462 3 1 0.598297890399 579
"210" 1 "step_1_no_load" 1 2 1 NA NA 370 NA
"210" 1 "step_2_no_load" 5 6 0.457620150462 6 1 0.511789129507 456
"211" 1 "step_1_no_load" 1 2 -1 NA NA -1 NA
"212" 1 "step_1_no_load" 1 2 2 NA NA 879 NA
"212" 1 "step_2_no_load" 5 6 0.457620150462 6 0 0.511789129507 568
"213" 1 "step_1_no_load" 1 2 -1 NA NA -1 NA
"217" 1 "step_1_no_load" 1 2 1 NA NA 992 NA
"217" 1 "step_2_no_load" 3 4 0.598297890399 3 0 0.457620150462 622
"220" 1 "step_1_no_load" 1 2 1 NA NA 687 NA
"220" 1 "step_2_no_load" 3 4 0.511789129507 -1 -1 0.457620150462 -1
"229" 1 "step_1_no_load" 1 2 -1 NA NA -1 NA
"230" 1 "step_1_no_load" 1 2 2 NA NA 677 NA
"230" 1 "step_2_no_load" 5 6 0.598297890399 6 1 0.511789129507 786
"234" 1 "step_1_no_load" 1 2 -1 NA NA -1 NA
"235" 1 "step_1_no_load" 1 2 -1 NA NA -1 NA
"238" 1 "step_1_no_load" 1 2 1 NA NA 1035 NA
"238" 1 "step_2_no_load" 3 4 0.594299910136 -1 -1 0.511789129507 -1
"240" 1 "step_1_no_load" 1 2 1 NA NA 960 NA
"240" 1 "step_2_no_load" 3 4 0.511789129507 3 1 0.594299910136 821
"241" 1 "step_1_no_load" 1 2 1 NA NA 797 NA
"241" 1 "step_2_no_load" 5 6 0.511789129507 5 1 0.594299910136 916
"248" 1 "step_1_no_load" 1 2 1 NA NA 942 NA
"248" 1 "step_2_no_load" 3 4 0.511789129507 3 0 0.598297890399 573
"250" 1 "step_1_no_load" 1 2 1 NA NA 387 NA
"250" 1 "step_2_no_load" 3 4 0.594299910136 3 1 0.511789129507 854
"260" 1 "step_1_no_load" 1 2 -1 NA NA -1 NA
"263" 1 "step_1_no_load" 1 2 -1 NA NA -1 NA
"264" 1 "step_1_no_load" 1 2 -1 NA NA -1 NA
"270" 1 "step_1_no_load" 1 2 1 NA NA 616 NA
"270" 1 "step_2_no_load" 3 4 0.598297890399 4 1 0.594299910136 797
"271" 1 "step_1_no_load" 1 2 1 NA NA 582 NA
"271" 1 "step_2_no_load" 3 4 0.594299910136 4 0 0.598297890399 597
"273" 1 "step_1_no_load" 1 2 1 NA NA 744 NA
"273" 1 "step_2_no_load" 3 4 0.594299910136 3 1 0.598297890399 652
"274" 1 "step_1_no_load" 1 2 1 NA NA 666 NA
"274" 1 "step_2_no_load" 5 6 0.594299910136 6 0 0.598297890399 1150
"275" 1 "step_1_no_load" 1 2 2 NA NA 423 NA
"275" 1 "step_2_no_load" 3 4 0.594299910136 4 1 0.598297890399 297
"281" 1 "step_1_no_load" 1 2 1 NA NA 1145 NA
"281" 1 "step_2_no_load" 5 6 0.457620150462 6 1 0.594299910136 782
"290" 1 "step_1_no_load" 1 2 1 NA NA 997 NA
"290" 1 "step_2_no_load" 5 6 0.457620150462 5 1 0.598297890399 835
"291" 1 "step_1_no_load" 1 2 1 NA NA 853 NA
"291" 1 "step_2_no_load" 5 6 0.598297890399 5 1 0.511789129507 1058
"292" 1 "step_1_no_load" 1 2 1 NA NA 896 NA
"292" 1 "step_2_no_load" 3 4 0.594299910136 3 0 0.457620150462 604
"293" 1 "step_1_no_load" 1 2 -1 NA NA -1 NA
"294" 1 "step_1_no_load" 1 2 2 NA NA 1122 NA
"294" 1 "step_2_no_load" 3 4 0.511789129507 4 1 0.594299910136 1138
"296" 1 "step_1_no_load" 1 2 1 NA NA 974 NA
"296" 1 "step_2_no_load" 3 4 0.598297890399 4 0 0.457620150462 780
"298" 1 "step_1_no_load" 1 2 1 NA NA 698 NA
"298" 1 "step_2_no_load" 3 4 0.598297890399 3 1 0.457620150462 1371
"299" 1 "step_1_no_load" 1 2 -1 NA NA -1 NA
"300" 1 "step_1_no_load" 1 2 2 NA NA 732 NA
"300" 1 "step_2_no_load" 5 6 0.594299910136 5 1 0.598297890399 648
"301" 1 "step_1_no_load" 1 2 1 NA NA 1445 NA
"301" 1 "step_2_no_load" 3 4 0.594299910136 3 1 0.511789129507 914
"302" 1 "step_1_no_load" 1 2 -1 NA NA -1 NA
"303" 1 "step_1_no_load" 1 2 1 NA NA 1264 NA
"303" 1 "step_2_no_load" 3 4 0.594299910136 4 0 0.457620150462 825
"308" 1 "step_1_no_load" 1 2 1 NA NA 204 NA
"308" 1 "step_2_no_load" 3 4 0.457620150462 4 0 0.511789129507 1113
"311" 1 "step_1_no_load" 1 2 1 NA NA 354 NA
"311" 1 "step_2_no_load" 3 4 0.457620150462 4 0 0.598297890399 1060
"312" 1 "step_1_no_load" 1 2 1 NA NA 409 NA
"312" 1 "step_2_no_load" 3 4 0.511789129507 3 1 0.457620150462 736
"313" 1 "step_1_no_load" 1 2 1 NA NA 501 NA
"313" 1 "step_2_no_load" 3 4 0.598297890399 3 1 0.457620150462 813
"314" 1 "step_1_no_load" 1 2 1 NA NA 650 NA
"314" 1 "step_2_no_load" 5 6 0.457620150462 6 0 0.511789129507 592
"315" 1 "step_1_no_load" 1 2 2 NA NA 855 NA
"315" 1 "step_2_no_load" 5 6 0.594299910136 6 0 0.511789129507 874
"316" 1 "step_1_no_load" 1 2 -1 NA NA -1 NA
"319" 1 "step_1_no_load" 1 2 1 NA NA 972 NA
"319" 1 "step_2_no_load" 3 4 0.511789129507 -1 -1 0.598297890399 -1
"321" 1 "step_1_no_load" 1 2 1 NA NA 942 NA
"321" 1 "step_2_no_load" 3 4 0.457620150462 -1 -1 0.594299910136 -1
"331" 1 "step_1_no_load" 1 2 2 NA NA 683 NA
"331" 1 "step_2_no_load" 3 4 0.598297890399 4 1 0.511789129507 392
"333" 1 "step_1_no_load" 1 2 1 NA NA 1168 NA
"333" 1 "step_2_no_load" 3 4 0.511789129507 3 1 0.457620150462 674
"335" 1 "step_1_no_load" 1 2 1 NA NA 713 NA
"335" 1 "step_2_no_load" 5 6 0.511789129507 5 1 0.598297890399 532
"337" 1 "step_1_no_load" 1 2 1 NA NA 661 NA
"337" 1 "step_2_no_load" 3 4 0.511789129507 4 0 0.457620150462 792
"338" 1 "step_1_no_load" 1 2 1 NA NA 749 NA
"338" 1 "step_2_no_load" 5 6 0.598297890399 5 1 0.457620150462 456
"339" 1 "step_1_no_load" 1 2 2 NA NA 618 NA
"339" 1 "step_2_no_load" 5 6 0.598297890399 6 1 0.594299910136 716
"344" 1 "step_1_no_load" 1 2 1 NA NA 370 NA
"344" 1 "step_2_no_load" 3 4 0.457620150462 4 1 0.511789129507 691
"345" 1 "step_1_no_load" 1 2 1 NA NA 1288 NA
"345" 1 "step_2_no_load" 3 4 0.457620150462 -1 -1 0.511789129507 -1
"348" 1 "step_1_no_load" 1 2 2 NA NA 486 NA
"348" 1 "step_2_no_load" 5 6 0.598297890399 6 1 0.594299910136 600
"349" 1 "step_1_no_load" 1 2 1 NA NA 671 NA
"349" 1 "step_2_no_load" 3 4 0.594299910136 3 0 0.511789129507 1316
"350" 1 "step_1_no_load" 1 2 1 NA NA 563 NA
"350" 1 "step_2_no_load" 5 6 0.594299910136 5 0 0.598297890399 544
"353" 1 "step_1_no_load" 1 2 1 NA NA 643 NA
"353" 1 "step_2_no_load" 3 4 0.598297890399 3 0 0.511789129507 757
"356" 1 "step_1_no_load" 1 2 1 NA NA 443 NA
"356" 1 "step_2_no_load" 5 6 0.598297890399 5 1 0.594299910136 942
"357" 1 "step_1_no_load" 1 2 2 NA NA 509 NA
"357" 1 "step_2_no_load" 5 6 0.598297890399 6 1 0.594299910136 455
"358" 1 "step_1_no_load" 1 2 2 NA NA 655 NA
"358" 1 "step_2_no_load" 5 6 0.511789129507 6 1 0.594299910136 672
"359" 1 "step_1_no_load" 1 2 -1 NA NA -1 NA
"360" 1 "step_1_no_load" 1 2 2 NA NA 793 NA
"360" 1 "step_2_no_load" 5 6 0.594299910136 6 0 0.598297890399 963
"364" 1 "step_1_no_load" 1 2 2 NA NA 1087 NA
"364" 1 "step_2_no_load" 5 6 0.598297890399 6 0 0.457620150462 835
"110" 2 "step_1_no_load" 1 2 1 NA NA 811 NA
"110" 2 "step_2_no_load" 3 4 0.610961032466 3 1 0.474613197709 594
"111" 2 "step_1_no_load" 1 2 1 NA NA 386 NA
"111" 2 "step_2_no_load" 3 4 0.533203491871 3 1 0.580156942153 486
"114" 2 "step_1_no_load" 1 2 1 NA NA 151 NA
"114" 2 "step_2_no_load" 5 6 0.533203491871 5 1 0.610961032466 563
"116" 2 "step_1_no_load" 1 2 1 NA NA 780 NA
"116" 2 "step_2_no_load" 3 4 0.610961032466 4 1 0.580156942153 1091
"117" 2 "step_1_no_load" 1 2 2 NA NA 582 NA
"117" 2 "step_2_no_load" 5 6 0.474613197709 5 0 0.580156942153 1394
"119" 2 "step_1_no_load" 1 2 1 NA NA 431 NA
"119" 2 "step_2_no_load" 5 6 0.580156942153 6 1 0.474613197709 428
"120" 2 "step_1_no_load" 1 2 2 NA NA 378 NA
"120" 2 "step_2_no_load" 5 6 0.474613197709 6 1 0.580156942153 171
"121" 2 "step_1_no_load" 1 2 2 NA NA 836 NA
"121" 2 "step_2_no_load" 5 6 0.610961032466 6 1 0.533203491871 1074
"122" 2 "step_1_no_load" 1 2 2 NA NA 347 NA
"122" 2 "step_2_no_load" 5 6 0.610961032466 6 0 0.474613197709 381
"124" 2 "step_1_no_load" 1 2 1 NA NA 103 NA
"124" 2 "step_2_no_load" 3 4 0.474613197709 4 0 0.533203491871 356
"126" 2 "step_1_no_load" 1 2 -1 NA NA -1 NA
"127" 2 "step_1_no_load" 1 2 2 NA NA 471 NA
"127" 2 "step_2_no_load" 5 6 0.533203491871 6 0 0.474613197709 1322
"128" 2 "step_1_no_load" 1 2 1 NA NA 381 NA
"128" 2 "step_2_no_load" 3 4 0.610961032466 4 0 0.533203491871 392
"129" 2 "step_1_no_load" 1 2 -1 NA NA -1 NA
"130" 2 "step_1_no_load" 1 2 1 NA NA 420 NA
"130" 2 "step_2_no_load" 3 4 0.610961032466 4 1 0.580156942153 703
"134" 2 "step_1_no_load" 1 2 1 NA NA 852 NA
"134" 2 "step_2_no_load" 3 4 0.474613197709 4 1 0.610961032466 1381
"135" 2 "step_1_no_load" 1 2 1 NA NA 436 NA
"135" 2 "step_2_no_load" 3 4 0.533203491871 4 1 0.610961032466 433
"138" 2 "step_1_no_load" 1 2 2 NA NA 541 NA
"138" 2 "step_2_no_load" 5 6 0.580156942153 5 1 0.474613197709 913
"139" 2 "step_1_no_load" 1 2 1 NA NA 6 NA
"139" 2 "step_2_no_load" 3 4 0.580156942153 3 1 0.610961032466 187
"140" 2 "step_1_no_load" 1 2 1 NA NA 562 NA
"140" 2 "step_2_no_load" 3 4 0.533203491871 3 1 0.580156942153 851
"142" 2 "step_1_no_load" 1 2 1 NA NA 586 NA
"142" 2 "step_2_no_load" 3 4 0.533203491871 3 0 0.580156942153 1044
"143" 2 "step_1_no_load" 1 2 2 NA NA 401 NA
"143" 2 "step_2_no_load" 5 6 0.580156942153 6 0 0.474613197709 693
"144" 2 "step_1_no_load" 1 2 1 NA NA 359 NA
"144" 2 "step_2_no_load" 3 4 0.533203491871 4 0 0.474613197709 458
"146" 2 "step_1_no_load" 1 2 1 NA NA 471 NA
"146" 2 "step_2_no_load" 3 4 0.580156942153 3 0 0.533203491871 352
"148" 2 "step_1_no_load" 1 2 1 NA NA 497 NA
"148" 2 "step_2_no_load" 3 4 0.533203491871 3 1 0.580156942153 554
"150" 2 "step_1_no_load" 1 2 2 NA NA 447 NA
"150" 2 "step_2_no_load" 3 4 0.580156942153 4 0 0.610961032466 842
"151" 2 "step_1_no_load" 1 2 1 NA NA 356 NA
"151" 2 "step_2_no_load" 3 4 0.580156942153 4 1 0.474613197709 552
"152" 2 "step_1_no_load" 1 2 2 NA NA 359 NA
"152" 2 "step_2_no_load" 3 4 0.610961032466 4 0 0.474613197709 456
"153" 2 "step_1_no_load" 1 2 1 NA NA 599 NA
"153" 2 "step_2_no_load" 5 6 0.533203491871 5 0 0.610961032466 1492
"154" 2 "step_1_no_load" 1 2 2 NA NA 412 NA
"154" 2 "step_2_no_load" 5 6 0.580156942153 5 1 0.474613197709 389
"156" 2 "step_1_no_load" 1 2 1 NA NA 303 NA
"156" 2 "step_2_no_load" 3 4 0.610961032466 4 1 0.580156942153 514
"159" 2 "step_1_no_load" 1 2 2 NA NA 779 NA
"159" 2 "step_2_no_load" 3 4 0.533203491871 4 1 0.580156942153 703
"160" 2 "step_1_no_load" 1 2 2 NA NA 617 NA
"160" 2 "step_2_no_load" 5 6 0.610961032466 6 1 0.474613197709 492
"161" 2 "step_1_no_load" 1 2 2 NA NA 660 NA
"161" 2 "step_2_no_load" 3 4 0.580156942153 3 1 0.533203491871 390
"165" 2 "step_1_no_load" 1 2 1 NA NA 486 NA
"165" 2 "step_2_no_load" 3 4 0.533203491871 3 0 0.610961032466 516
"166" 2 "step_1_no_load" 1 2 2 NA NA 772 NA
"166" 2 "step_2_no_load" 3 4 0.610961032466 3 1 0.580156942153 609
"167" 2 "step_1_no_load" 1 2 1 NA NA 478 NA
"167" 2 "step_2_no_load" 3 4 0.580156942153 3 0 0.610961032466 673
"169" 2 "step_1_no_load" 1 2 1 NA NA 661 NA
"169" 2 "step_2_no_load" 3 4 0.533203491871 3 1 0.610961032466 403
"170" 2 "step_1_no_load" 1 2 1 NA NA 51 NA
"170" 2 "step_2_no_load" 3 4 0.533203491871 4 1 0.580156942153 761
"178" 2 "step_1_no_load" 1 2 1 NA NA 393 NA
"178" 2 "step_2_no_load" 3 4 0.533203491871 4 1 0.474613197709 904
"180" 2 "step_1_no_load" 1 2 1 NA NA 747 NA
"180" 2 "step_2_no_load" 3 4 0.533203491871 4 0 0.474613197709 1036
"182" 2 "step_1_no_load" 1 2 1 NA NA 233 NA
"182" 2 "step_2_no_load" 3 4 0.610961032466 4 1 0.580156942153 399
"183" 2 "step_1_no_load" 1 2 1 NA NA 546 NA
"183" 2 "step_2_no_load" 5 6 0.610961032466 5 0 0.474613197709 533
"184" 2 "step_1_no_load" 1 2 1 NA NA 513 NA
"184" 2 "step_2_no_load" 3 4 0.474613197709 3 0 0.533203491871 1361
"187" 2 "step_1_no_load" 1 2 1 NA NA 339 NA
"187" 2 "step_2_no_load" 3 4 0.533203491871 3 1 0.580156942153 881
"188" 2 "step_1_no_load" 1 2 2 NA NA 267 NA
"188" 2 "step_2_no_load" 5 6 0.474613197709 6 0 0.580156942153 274
"194" 2 "step_1_no_load" 1 2 2 NA NA 415 NA
"194" 2 "step_2_no_load" 5 6 0.610961032466 5 0 0.533203491871 804
"195" 2 "step_1_no_load" 1 2 1 NA NA 466 NA
"195" 2 "step_2_no_load" 3 4 0.610961032466 3 0 0.533203491871 1411
"199" 2 "step_1_no_load" 1 2 1 NA NA 572 NA
"199" 2 "step_2_no_load" 3 4 0.533203491871 4 1 0.580156942153 418
"203" 2 "step_1_no_load" 1 2 2 NA NA 794 NA
"203" 2 "step_2_no_load" 3 4 0.533203491871 4 1 0.580156942153 410
"206" 2 "step_1_no_load" 1 2 1 NA NA 659 NA
"206" 2 "step_2_no_load" 5 6 0.610961032466 -1 -1 0.580156942153 -1
"207" 2 "step_1_no_load" 1 2 1 NA NA 570 NA
"207" 2 "step_2_no_load" 5 6 0.533203491871 -1 -1 0.610961032466 -1
"208" 2 "step_1_no_load" 1 2 1 NA NA 426 NA
"208" 2 "step_2_no_load" 3 4 0.474613197709 3 0 0.580156942153 487
"210" 2 "step_1_no_load" 1 2 1 NA NA 449 NA
"210" 2 "step_2_no_load" 3 4 0.580156942153 4 1 0.610961032466 695
"211" 2 "step_1_no_load" 1 2 -1 NA NA -1 NA
"212" 2 "step_1_no_load" 1 2 2 NA NA 617 NA
"212" 2 "step_2_no_load" 5 6 0.474613197709 5 1 0.533203491871 767
"213" 2 "step_1_no_load" 1 2 2 NA NA 519 NA
"213" 2 "step_2_no_load" 5 6 0.474613197709 6 1 0.610961032466 963
"217" 2 "step_1_no_load" 1 2 1 NA NA 270 NA
"217" 2 "step_2_no_load" 3 4 0.580156942153 4 0 0.474613197709 346
"220" 2 "step_1_no_load" 1 2 1 NA NA 796 NA
"220" 2 "step_2_no_load" 3 4 0.533203491871 4 1 0.474613197709 675
"229" 2 "step_1_no_load" 1 2 2 NA NA 506 NA
"229" 2 "step_2_no_load" 3 4 0.610961032466 4 1 0.533203491871 414
"230" 2 "step_1_no_load" 1 2 2 NA NA 331 NA
"230" 2 "step_2_no_load" 5 6 0.580156942153 6 1 0.533203491871 542
"234" 2 "step_1_no_load" 1 2 1 NA NA 914 NA
"234" 2 "step_2_no_load" 5 6 0.580156942153 6 0 0.610961032466 832
"235" 2 "step_1_no_load" 1 2 2 NA NA 18 NA
"235" 2 "step_2_no_load" 5 6 0.533203491871 5 1 0.580156942153 1052
"238" 2 "step_1_no_load" 1 2 1 NA NA 476 NA
"238" 2 "step_2_no_load" 5 6 0.580156942153 6 1 0.474613197709 1010
"240" 2 "step_1_no_load" 1 2 2 NA NA 558 NA
"240" 2 "step_2_no_load" 3 4 0.533203491871 4 1 0.610961032466 610
"241" 2 "step_1_no_load" 1 2 1 NA NA 614 NA
"241" 2 "step_2_no_load" 3 4 0.580156942153 3 0 0.474613197709 1013
"248" 2 "step_1_no_load" 1 2 2 NA NA 361 NA
"248" 2 "step_2_no_load" 3 4 0.533203491871 3 1 0.580156942153 1143
"250" 2 "step_1_no_load" 1 2 1 NA NA 627 NA
"250" 2 "step_2_no_load" 3 4 0.610961032466 3 1 0.533203491871 534
"260" 2 "step_1_no_load" 1 2 1 NA NA 387 NA
"260" 2 "step_2_no_load" 3 4 0.474613197709 4 1 0.580156942153 906
"263" 2 "step_1_no_load" 1 2 1 NA NA 482 NA
"263" 2 "step_2_no_load" 3 4 0.610961032466 4 0 0.474613197709 161
"264" 2 "step_1_no_load" 1 2 1 NA NA 612 NA
"264" 2 "step_2_no_load" 3 4 0.474613197709 -1 -1 0.610961032466 -1
"270" 2 "step_1_no_load" 1 2 1 NA NA 676 NA
"270" 2 "step_2_no_load" 5 6 0.533203491871 6 0 0.474613197709 710
"271" 2 "step_1_no_load" 1 2 2 NA NA 449 NA
"271" 2 "step_2_no_load" 5 6 0.533203491871 6 1 0.474613197709 624
"273" 2 "step_1_no_load" 1 2 1 NA NA 664 NA
"273" 2 "step_2_no_load" 3 4 0.610961032466 3 1 0.580156942153 568
"274" 2 "step_1_no_load" 1 2 1 NA NA 503 NA
"274" 2 "step_2_no_load" 3 4 0.533203491871 3 1 0.474613197709 1294
"275" 2 "step_1_no_load" 1 2 2 NA NA 612 NA
"275" 2 "step_2_no_load" 5 6 0.533203491871 6 1 0.474613197709 372
"281" 2 "step_1_no_load" 1 2 1 NA NA 384 NA
"281" 2 "step_2_no_load" 3 4 0.533203491871 4 1 0.580156942153 438
"290" 2 "step_1_no_load" 1 2 1 NA NA 349 NA
"290" 2 "step_2_no_load" 5 6 0.474613197709 5 0 0.580156942153 383
"291" 2 "step_1_no_load" 1 2 1 NA NA 541 NA
"291" 2 "step_2_no_load" 3 4 0.474613197709 4 1 0.610961032466 676
"292" 2 "step_1_no_load" 1 2 1 NA NA 265 NA
"292" 2 "step_2_no_load" 3 4 0.610961032466 3 1 0.474613197709 323
"293" 2 "step_1_no_load" 1 2 1 NA NA 408 NA
"293" 2 "step_2_no_load" 3 4 0.533203491871 -1 -1 0.580156942153 -1
"294" 2 "step_1_no_load" 1 2 2 NA NA 586 NA
"294" 2 "step_2_no_load" 5 6 0.580156942153 6 0 0.474613197709 1005
"296" 2 "step_1_no_load" 1 2 2 NA NA 934 NA
"296" 2 "step_2_no_load" 3 4 0.580156942153 -1 -1 0.474613197709 -1
"298" 2 "step_1_no_load" 1 2 1 NA NA 599 NA
"298" 2 "step_2_no_load" 3 4 0.580156942153 3 1 0.474613197709 762
"299" 2 "step_1_no_load" 1 2 1 NA NA 319 NA
"299" 2 "step_2_no_load" 3 4 0.610961032466 3 1 0.580156942153 646
"300" 2 "step_1_no_load" 1 2 2 NA NA 446 NA
"300" 2 "step_2_no_load" 5 6 0.610961032466 6 1 0.580156942153 637
"301" 2 "step_1_no_load" 1 2 1 NA NA 12 NA
"301" 2 "step_2_no_load" 5 6 0.474613197709 -1 -1 0.580156942153 -1
"302" 2 "step_1_no_load" 1 2 1 NA NA 294 NA
"302" 2 "step_2_no_load" 5 6 0.580156942153 6 1 0.533203491871 493
"303" 2 "step_1_no_load" 1 2 1 NA NA 613 NA
"303" 2 "step_2_no_load" 3 4 0.610961032466 3 0 0.474613197709 366
"308" 2 "step_1_no_load" 1 2 2 NA NA 1036 NA
"308" 2 "step_2_no_load" 5 6 0.580156942153 5 1 0.610961032466 780
"311" 2 "step_1_no_load" 1 2 1 NA NA 328 NA
"311" 2 "step_2_no_load" 3 4 0.474613197709 3 0 0.580156942153 862
"312" 2 "step_1_no_load" 1 2 1 NA NA 638 NA
"312" 2 "step_2_no_load" 3 4 0.533203491871 3 1 0.474613197709 819
"313" 2 "step_1_no_load" 1 2 1 NA NA 458 NA
"313" 2 "step_2_no_load" 3 4 0.580156942153 3 0 0.474613197709 573
"314" 2 "step_1_no_load" 1 2 1 NA NA 337 NA
"314" 2 "step_2_no_load" 3 4 0.610961032466 3 0 0.580156942153 1038
"315" 2 "step_1_no_load" 1 2 1 NA NA 880 NA
"315" 2 "step_2_no_load" 3 4 0.580156942153 4 1 0.474613197709 874
"316" 2 "step_1_no_load" 1 2 1 NA NA 351 NA
"316" 2 "step_2_no_load" 3 4 0.533203491871 3 1 0.474613197709 439
"319" 2 "step_1_no_load" 1 2 1 NA NA 506 NA
"319" 2 "step_2_no_load" 3 4 0.533203491871 3 1 0.580156942153 425
"321" 2 "step_1_no_load" 1 2 1 NA NA 580 NA
"321" 2 "step_2_no_load" 3 4 0.474613197709 3 0 0.610961032466 1098
"331" 2 "step_1_no_load" 1 2 2 NA NA 492 NA
"331" 2 "step_2_no_load" 5 6 0.610961032466 6 1 0.474613197709 386
"333" 2 "step_1_no_load" 1 2 1 NA NA 354 NA
"333" 2 "step_2_no_load" 3 4 0.533203491871 3 1 0.474613197709 340
"335" 2 "step_1_no_load" 1 2 1 NA NA 401 NA
"335" 2 "step_2_no_load" 5 6 0.533203491871 5 0 0.580156942153 376
"337" 2 "step_1_no_load" 1 2 1 NA NA 574 NA
"337" 2 "step_2_no_load" 3 4 0.533203491871 4 1 0.474613197709 789
"338" 2 "step_1_no_load" 1 2 1 NA NA 416 NA
"338" 2 "step_2_no_load" 3 4 0.610961032466 3 1 0.533203491871 632
"339" 2 "step_1_no_load" 1 2 2 NA NA 682 NA
"339" 2 "step_2_no_load" 5 6 0.580156942153 6 1 0.610961032466 1218
"344" 2 "step_1_no_load" 1 2 1 NA NA 284 NA
"344" 2 "step_2_no_load" 3 4 0.474613197709 3 0 0.533203491871 324
"345" 2 "step_1_no_load" 1 2 2 NA NA 412 NA
"345" 2 "step_2_no_load" 3 4 0.474613197709 3 0 0.533203491871 623
"348" 2 "step_1_no_load" 1 2 2 NA NA 462 NA
"348" 2 "step_2_no_load" 5 6 0.580156942153 6 0 0.610961032466 341
"349" 2 "step_1_no_load" 1 2 1 NA NA 58 NA
"349" 2 "step_2_no_load" 3 4 0.610961032466 3 1 0.533203491871 865
"350" 2 "step_1_no_load" 1 2 2 NA NA 471 NA
"350" 2 "step_2_no_load" 3 4 0.533203491871 4 1 0.474613197709 742
"353" 2 "step_1_no_load" 1 2 2 NA NA 99 NA
"353" 2 "step_2_no_load" 5 6 0.610961032466 6 0 0.474613197709 850
"356" 2 "step_1_no_load" 1 2 1 NA NA 612 NA
"356" 2 "step_2_no_load" 3 4 0.533203491871 4 0 0.474613197709 892
"357" 2 "step_1_no_load" 1 2 1 NA NA 311 NA
"357" 2 "step_2_no_load" 5 6 0.580156942153 6 0 0.610961032466 473
"358" 2 "step_1_no_load" 1 2 1 NA NA 423 NA
"358" 2 "step_2_no_load" 3 4 0.580156942153 3 0 0.474613197709 527
"359" 2 "step_1_no_load" 1 2 2 NA NA 266 NA
"359" 2 "step_2_no_load" 3 4 0.474613197709 4 1 0.580156942153 534
"360" 2 "step_1_no_load" 1 2 1 NA NA 1241 NA
"360" 2 "step_2_no_load" 3 4 0.474613197709 4 1 0.533203491871 905
"364" 2 "step_1_no_load" 1 2 1 NA NA 409 NA
"364" 2 "step_2_no_load" 5 6 0.580156942153 5 0 0.474613197709 537
"110" 3 "step_1_no_load" 1 2 1 NA NA 425 NA
"110" 3 "step_2_no_load" 3 4 0.589215227351 4 1 0.476767372206 413
"111" 3 "step_1_no_load" 1 2 1 NA NA 354 NA
"111" 3 "step_2_no_load" 3 4 0.516002945397 3 0 0.584197065669 466
"114" 3 "step_1_no_load" 1 2 1 NA NA 296 NA
"114" 3 "step_2_no_load" 5 6 0.516002945397 5 0 0.589215227351 161
"116" 3 "step_1_no_load" 1 2 1 NA NA 592 NA
"116" 3 "step_2_no_load" 3 4 0.589215227351 4 0 0.584197065669 1287
"117" 3 "step_1_no_load" 1 2 1 NA NA 515 NA
"117" 3 "step_2_no_load" 3 4 0.589215227351 3 0 0.516002945397 780
"119" 3 "step_1_no_load" 1 2 1 NA NA 389 NA
"119" 3 "step_2_no_load" 3 4 0.589215227351 3 0 0.516002945397 843
"120" 3 "step_1_no_load" 1 2 2 NA NA 247 NA
"120" 3 "step_2_no_load" 3 4 0.589215227351 4 1 0.516002945397 74
"121" 3 "step_1_no_load" 1 2 1 NA NA 525 NA
"121" 3 "step_2_no_load" 3 4 0.584197065669 4 1 0.476767372206 705
"122" 3 "step_1_no_load" 1 2 1 NA NA 213 NA
"122" 3 "step_2_no_load" 3 4 0.516002945397 4 1 0.584197065669 255
"124" 3 "step_1_no_load" 1 2 2 NA NA 212 NA
"124" 3 "step_2_no_load" 5 6 0.584197065669 6 1 0.589215227351 367
"126" 3 "step_1_no_load" 1 2 1 NA NA 856 NA
"126" 3 "step_2_no_load" 5 6 0.476767372206 5 0 0.589215227351 906
"127" 3 "step_1_no_load" 1 2 2 NA NA 393 NA
"127" 3 "step_2_no_load" 5 6 0.516002945397 5 0 0.476767372206 1137
"128" 3 "step_1_no_load" 1 2 1 NA NA 476 NA
"128" 3 "step_2_no_load" 5 6 0.476767372206 6 1 0.584197065669 815
"129" 3 "step_1_no_load" 1 2 1 NA NA 608 NA
"129" 3 "step_2_no_load" 5 6 0.589215227351 5 1 0.476767372206 1433
"130" 3 "step_1_no_load" 1 2 1 NA NA 319 NA
"130" 3 "step_2_no_load" 3 4 0.589215227351 4 1 0.584197065669 537
"134" 3 "step_1_no_load" 1 2 1 NA NA 832 NA
"134" 3 "step_2_no_load" 3 4 0.476767372206 4 1 0.589215227351 716
"135" 3 "step_1_no_load" 1 2 1 NA NA 360 NA
"135" 3 "step_2_no_load" 3 4 0.516002945397 3 0 0.589215227351 459
"138" 3 "step_1_no_load" 1 2 2 NA NA 1433 NA
"138" 3 "step_2_no_load" 5 6 0.584197065669 6 0 0.476767372206 1251
"139" 3 "step_1_no_load" 1 2 2 NA NA 0 NA
"139" 3 "step_2_no_load" 5 6 0.516002945397 6 0 0.476767372206 69
"140" 3 "step_1_no_load" 1 2 2 NA NA 452 NA
"140" 3 "step_2_no_load" 5 6 0.476767372206 6 0 0.589215227351 774
"142" 3 "step_1_no_load" 1 2 1 NA NA 660 NA
"142" 3 "step_2_no_load" 5 6 0.476767372206 5 0 0.589215227351 1127
"143" 3 "step_1_no_load" 1 2 2 NA NA 1 NA
"143" 3 "step_2_no_load" 3 4 0.516002945397 4 0 0.589215227351 494
"144" 3 "step_1_no_load" 1 2 2 NA NA 412 NA
"144" 3 "step_2_no_load" 5 6 0.589215227351 5 1 0.584197065669 500
"146" 3 "step_1_no_load" 1 2 2 NA NA 327 NA
"146" 3 "step_2_no_load" 5 6 0.476767372206 6 0 0.589215227351 415
"148" 3 "step_1_no_load" 1 2 2 NA NA 576 NA
"148" 3 "step_2_no_load" 3 4 0.516002945397 3 1 0.584197065669 565
"150" 3 "step_1_no_load" 1 2 2 NA NA 398 NA
"150" 3 "step_2_no_load" 3 4 0.584197065669 4 1 0.589215227351 259
"151" 3 "step_1_no_load" 1 2 1 NA NA 495 NA
"151" 3 "step_2_no_load" 5 6 0.589215227351 5 1 0.516002945397 668
"152" 3 "step_1_no_load" 1 2 2 NA NA 279 NA
"152" 3 "step_2_no_load" 5 6 0.584197065669 6 0 0.516002945397 130
"153" 3 "step_1_no_load" 1 2 2 NA NA 1481 NA
"153" 3 "step_2_no_load" 3 4 0.584197065669 3 0 0.476767372206 1344
"154" 3 "step_1_no_load" 1 2 2 NA NA 721 NA
"154" 3 "step_2_no_load" 3 4 0.516002945397 3 0 0.589215227351 360
"156" 3 "step_1_no_load" 1 2 1 NA NA 326 NA
"156" 3 "step_2_no_load" 3 4 0.589215227351 4 1 0.584197065669 242
"159" 3 "step_1_no_load" 1 2 1 NA NA 443 NA
"159" 3 "step_2_no_load" 5 6 0.589215227351 5 1 0.476767372206 565
"160" 3 "step_1_no_load" 1 2 2 NA NA 455 NA
"160" 3 "step_2_no_load" 3 4 0.584197065669 4 0 0.516002945397 489
"161" 3 "step_1_no_load" 1 2 2 NA NA 931 NA
"161" 3 "step_2_no_load" 3 4 0.584197065669 4 1 0.516002945397 502
"165" 3 "step_1_no_load" 1 2 1 NA NA 422 NA
"165" 3 "step_2_no_load" 5 6 0.584197065669 6 1 0.476767372206 345
"166" 3 "step_1_no_load" 1 2 2 NA NA 560 NA
"166" 3 "step_2_no_load" 3 4 0.589215227351 4 1 0.584197065669 893
"167" 3 "step_1_no_load" 1 2 1 NA NA 767 NA
"167" 3 "step_2_no_load" 3 4 0.584197065669 4 1 0.589215227351 935
"169" 3 "step_1_no_load" 1 2 1 NA NA 357 NA
"169" 3 "step_2_no_load" 3 4 0.516002945397 3 1 0.589215227351 392
"170" 3 "step_1_no_load" 1 2 1 NA NA 696 NA
"170" 3 "step_2_no_load" 3 4 0.516002945397 4 1 0.584197065669 791
"178" 3 "step_1_no_load" 1 2 1 NA NA 917 NA
"178" 3 "step_2_no_load" 3 4 0.516002945397 4 0 0.476767372206 581
"180" 3 "step_1_no_load" 1 2 2 NA NA 507 NA
"180" 3 "step_2_no_load" 5 6 0.589215227351 6 0 0.584197065669 1202
"182" 3 "step_1_no_load" 1 2 2 NA NA 288 NA
"182" 3 "step_2_no_load" 5 6 0.476767372206 5 1 0.516002945397 344
"183" 3 "step_1_no_load" 1 2 2 NA NA 686 NA
"183" 3 "step_2_no_load" 3 4 0.516002945397 4 1 0.584197065669 701
"184" 3 "step_1_no_load" 1 2 2 NA NA 1265 NA
"184" 3 "step_2_no_load" 3 4 0.476767372206 4 0 0.516002945397 1264
"187" 3 "step_1_no_load" 1 2 1 NA NA 429 NA
"187" 3 "step_2_no_load" 3 4 0.516002945397 3 1 0.584197065669 590
"188" 3 "step_1_no_load" 1 2 2 NA NA 288 NA
"188" 3 "step_2_no_load" 5 6 0.476767372206 5 0 0.584197065669 329
"194" 3 "step_1_no_load" 1 2 2 NA NA 543 NA
"194" 3 "step_2_no_load" 3 4 0.476767372206 4 0 0.584197065669 822
"195" 3 "step_1_no_load" 1 2 1 NA NA 565 NA
"195" 3 "step_2_no_load" 3 4 0.589215227351 4 0 0.516002945397 497
"199" 3 "step_1_no_load" 1 2 1 NA NA 628 NA
"199" 3 "step_2_no_load" 3 4 0.516002945397 4 0 0.584197065669 595
"203" 3 "step_1_no_load" 1 2 2 NA NA 694 NA
"203" 3 "step_2_no_load" 5 6 0.589215227351 5 1 0.476767372206 893
"206" 3 "step_1_no_load" 1 2 2 NA NA 484 NA
"206" 3 "step_2_no_load" 3 4 0.516002945397 4 1 0.476767372206 1069
"207" 3 "step_1_no_load" 1 2 1 NA NA 99 NA
"207" 3 "step_2_no_load" 3 4 0.476767372206 4 1 0.584197065669 788
"208" 3 "step_1_no_load" 1 2 1 NA NA 308 NA
"208" 3 "step_2_no_load" 5 6 0.516002945397 6 1 0.589215227351 609
"210" 3 "step_1_no_load" 1 2 2 NA NA 262 NA
"210" 3 "step_2_no_load" 5 6 0.476767372206 6 1 0.516002945397 1060
"211" 3 "step_1_no_load" 1 2 1 NA NA 494 NA
"211" 3 "step_2_no_load" 5 6 0.516002945397 5 0 0.584197065669 1165
"212" 3 "step_1_no_load" 1 2 2 NA NA 642 NA
"212" 3 "step_2_no_load" 5 6 0.476767372206 5 0 0.516002945397 760
"213" 3 "step_1_no_load" 1 2 2 NA NA 13 NA
"213" 3 "step_2_no_load" 3 4 0.584197065669 4 1 0.516002945397 57
"217" 3 "step_1_no_load" 1 2 1 NA NA 370 NA
"217" 3 "step_2_no_load" 3 4 0.584197065669 3 0 0.476767372206 263
"220" 3 "step_1_no_load" 1 2 1 NA NA 128 NA
"220" 3 "step_2_no_load" 5 6 0.584197065669 6 0 0.589215227351 896
"229" 3 "step_1_no_load" 1 2 2 NA NA 1150 NA
"229" 3 "step_2_no_load" 3 4 0.589215227351 4 1 0.516002945397 115
"230" 3 "step_1_no_load" 1 2 2 NA NA 295 NA
"230" 3 "step_2_no_load" 3 4 0.476767372206 4 0 0.589215227351 831
"234" 3 "step_1_no_load" 1 2 1 NA NA 629 NA
"234" 3 "step_2_no_load" 5 6 0.584197065669 6 0 0.589215227351 770
"235" 3 "step_1_no_load" 1 2 2 NA NA 446 NA
"235" 3 "step_2_no_load" 3 4 0.476767372206 4 1 0.589215227351 613
"238" 3 "step_1_no_load" 1 2 1 NA NA 621 NA
"238" 3 "step_2_no_load" 3 4 0.589215227351 4 0 0.516002945397 1056
"240" 3 "step_1_no_load" 1 2 1 NA NA 473 NA
"240" 3 "step_2_no_load" 3 4 0.516002945397 3 1 0.589215227351 351
"241" 3 "step_1_no_load" 1 2 1 NA NA 622 NA
"241" 3 "step_2_no_load" 3 4 0.584197065669 4 0 0.476767372206 915
"248" 3 "step_1_no_load" 1 2 1 NA NA 353 NA
"248" 3 "step_2_no_load" 3 4 0.516002945397 3 1 0.584197065669 790
"250" 3 "step_1_no_load" 1 2 1 NA NA 564 NA
"250" 3 "step_2_no_load" 5 6 0.584197065669 6 1 0.476767372206 1196
"260" 3 "step_1_no_load" 1 2 1 NA NA 841 NA
"260" 3 "step_2_no_load" 3 4 0.476767372206 4 0 0.584197065669 905
"263" 3 "step_1_no_load" 1 2 1 NA NA 664 NA
"263" 3 "step_2_no_load" 5 6 0.516002945397 6 0 0.584197065669 1113
"264" 3 "step_1_no_load" 1 2 1 NA NA 307 NA
"264" 3 "step_2_no_load" 5 6 0.584197065669 5 0 0.516002945397 239
"270" 3 "step_1_no_load" 1 2 1 NA NA 567 NA
"270" 3 "step_2_no_load" 3 4 0.584197065669 4 0 0.589215227351 658
"271" 3 "step_1_no_load" 1 2 1 NA NA 472 NA
"271" 3 "step_2_no_load" 3 4 0.589215227351 3 1 0.584197065669 741
"273" 3 "step_1_no_load" 1 2 1 NA NA 673 NA
"273" 3 "step_2_no_load" 3 4 0.589215227351 3 0 0.584197065669 677
"274" 3 "step_1_no_load" 1 2 1 NA NA 377 NA
"274" 3 "step_2_no_load" 5 6 0.589215227351 5 0 0.584197065669 1325
"275" 3 "step_1_no_load" 1 2 2 NA NA 417 NA
"275" 3 "step_2_no_load" 3 4 0.589215227351 4 1 0.584197065669 697
"281" 3 "step_1_no_load" 1 2 1 NA NA 391 NA
"281" 3 "step_2_no_load" 3 4 0.516002945397 4 0 0.584197065669 333
"290" 3 "step_1_no_load" 1 2 1 NA NA 487 NA
"290" 3 "step_2_no_load" 3 4 0.516002945397 3 1 0.589215227351 400
"291" 3 "step_1_no_load" 1 2 1 NA NA 771 NA
"291" 3 "step_2_no_load" 3 4 0.476767372206 3 0 0.589215227351 835
"292" 3 "step_1_no_load" 1 2 1 NA NA 233 NA
"292" 3 "step_2_no_load" 5 6 0.516002945397 5 1 0.584197065669 731
"293" 3 "step_1_no_load" 1 2 1 NA NA 381 NA
"293" 3 "step_2_no_load" 3 4 0.516002945397 3 0 0.584197065669 522
"294" 3 "step_1_no_load" 1 2 2 NA NA 683 NA
"294" 3 "step_2_no_load" 5 6 0.584197065669 5 1 0.476767372206 774
"296" 3 "step_1_no_load" 1 2 1 NA NA 680 NA
"296" 3 "step_2_no_load" 3 4 0.584197065669 4 1 0.476767372206 1472
"298" 3 "step_1_no_load" 1 2 1 NA NA 509 NA
"298" 3 "step_2_no_load" 5 6 0.516002945397 6 1 0.589215227351 1499
"299" 3 "step_1_no_load" 1 2 1 NA NA 412 NA
"299" 3 "step_2_no_load" 3 4 0.589215227351 3 1 0.584197065669 574
"300" 3 "step_1_no_load" 1 2 1 NA NA 506 NA
"300" 3 "step_2_no_load" 3 4 0.476767372206 3 0 0.516002945397 518
"301" 3 "step_1_no_load" 1 2 1 NA NA 656 NA
"301" 3 "step_2_no_load" 5 6 0.476767372206 6 1 0.584197065669 938
"302" 3 "step_1_no_load" 1 2 1 NA NA 97 NA
"302" 3 "step_2_no_load" 3 4 0.589215227351 3 1 0.476767372206 626
"303" 3 "step_1_no_load" 1 2 1 NA NA 263 NA
"303" 3 "step_2_no_load" 3 4 0.589215227351 3 1 0.476767372206 237
"308" 3 "step_1_no_load" 1 2 2 NA NA 918 NA
"308" 3 "step_2_no_load" 5 6 0.584197065669 5 1 0.589215227351 532
"311" 3 "step_1_no_load" 1 2 2 NA NA 468 NA
"311" 3 "step_2_no_load" 5 6 0.589215227351 5 1 0.516002945397 682
"312" 3 "step_1_no_load" 1 2 1 NA NA 536 NA
"312" 3 "step_2_no_load" 3 4 0.516002945397 3 0 0.476767372206 904
"313" 3 "step_1_no_load" 1 2 1 NA NA 306 NA
"313" 3 "step_2_no_load" 5 6 0.516002945397 5 1 0.589215227351 889
"314" 3 "step_1_no_load" 1 2 1 NA NA 399 NA
"314" 3 "step_2_no_load" 3 4 0.589215227351 4 1 0.584197065669 940
"315" 3 "step_1_no_load" 1 2 1 NA NA 376 NA
"315" 3 "step_2_no_load" 3 4 0.584197065669 4 1 0.476767372206 539
"316" 3 "step_1_no_load" 1 2 1 NA NA 121 NA
"316" 3 "step_2_no_load" 3 4 0.516002945397 3 0 0.476767372206 330
"319" 3 "step_1_no_load" 1 2 1 NA NA 433 NA
"319" 3 "step_2_no_load" 3 4 0.516002945397 3 0 0.584197065669 481
"321" 3 "step_1_no_load" 1 2 1 NA NA 644 NA
"321" 3 "step_2_no_load" 5 6 0.584197065669 6 0 0.516002945397 1362
"331" 3 "step_1_no_load" 1 2 2 NA NA 403 NA
"331" 3 "step_2_no_load" 5 6 0.589215227351 6 1 0.476767372206 347
"333" 3 "step_1_no_load" 1 2 1 NA NA 394 NA
"333" 3 "step_2_no_load" 3 4 0.516002945397 3 1 0.476767372206 319
"335" 3 "step_1_no_load" 1 2 1 NA NA 547 NA
"335" 3 "step_2_no_load" 3 4 0.476767372206 -1 -1 0.589215227351 -1
"337" 3 "step_1_no_load" 1 2 1 NA NA 611 NA
"337" 3 "step_2_no_load" 3 4 0.516002945397 4 1 0.476767372206 602
"338" 3 "step_1_no_load" 1 2 1 NA NA 534 NA
"338" 3 "step_2_no_load" 5 6 0.584197065669 5 1 0.476767372206 365
"339" 3 "step_1_no_load" 1 2 2 NA NA 511 NA
"339" 3 "step_2_no_load" 3 4 0.516002945397 3 1 0.476767372206 1102
"344" 3 "step_1_no_load" 1 2 2 NA NA 222 NA
"344" 3 "step_2_no_load" 5 6 0.589215227351 6 0 0.584197065669 723
"345" 3 "step_1_no_load" 1 2 2 NA NA 311 NA
"345" 3 "step_2_no_load" 5 6 0.589215227351 5 0 0.584197065669 601
"348" 3 "step_1_no_load" 1 2 1 NA NA 450 NA
"348" 3 "step_2_no_load" 3 4 0.516002945397 4 1 0.476767372206 283
"349" 3 "step_1_no_load" 1 2 1 NA NA 1 NA
"349" 3 "step_2_no_load" 3 4 0.589215227351 3 1 0.516002945397 901
"350" 3 "step_1_no_load" 1 2 2 NA NA 506 NA
"350" 3 "step_2_no_load" 3 4 0.516002945397 4 0 0.476767372206 364
"353" 3 "step_1_no_load" 1 2 1 NA NA 0 NA
"353" 3 "step_2_no_load" 3 4 0.584197065669 4 0 0.516002945397 461
"356" 3 "step_1_no_load" 1 2 1 NA NA 614 NA
"356" 3 "step_2_no_load" 3 4 0.516002945397 4 1 0.476767372206 1453
"357" 3 "step_1_no_load" 1 2 1 NA NA 438 NA
"357" 3 "step_2_no_load" 3 4 0.516002945397 3 1 0.476767372206 526
"358" 3 "step_1_no_load" 1 2 2 NA NA 387 NA
"358" 3 "step_2_no_load" 5 6 0.516002945397 6 1 0.589215227351 450
"359" 3 "step_1_no_load" 1 2 2 NA NA 796 NA
"359" 3 "step_2_no_load" 5 6 0.516002945397 5 1 0.589215227351 1059
"360" 3 "step_1_no_load" 1 2 1 NA NA 392 NA
"360" 3 "step_2_no_load" 5 6 0.589215227351 6 0 0.584197065669 425
"364" 3 "step_1_no_load" 1 2 1 NA NA 461 NA
"364" 3 "step_2_no_load" 5 6 0.584197065669 6 0 0.476767372206 835
"110" 4 "step_1_no_load" 1 2 1 NA NA 829 NA
"110" 4 "step_2_no_load" 3 4 0.564086293706 3 0 0.478607661228 716
"111" 4 "step_1_no_load" 1 2 1 NA NA 924 NA
"111" 4 "step_2_no_load" 3 4 0.494597764192 3 0 0.597491569846 702
"114" 4 "step_1_no_load" 1 2 1 NA NA 322 NA
"114" 4 "step_2_no_load" 3 4 0.597491569846 3 0 0.478607661228 260
"116" 4 "step_1_no_load" 1 2 1 NA NA 608 NA
"116" 4 "step_2_no_load" 5 6 0.494597764192 6 0 0.478607661228 1459
"117" 4 "step_1_no_load" 1 2 1 NA NA 688 NA
"117" 4 "step_2_no_load" 3 4 0.564086293706 4 0 0.494597764192 781
"119" 4 "step_1_no_load" 1 2 1 NA NA 432 NA
"119" 4 "step_2_no_load" 3 4 0.564086293706 -1 -1 0.494597764192 -1
"120" 4 "step_1_no_load" 1 2 2 NA NA 14 NA
"120" 4 "step_2_no_load" 5 6 0.478607661228 6 0 0.597491569846 308
"121" 4 "step_1_no_load" 1 2 1 NA NA 720 NA
"121" 4 "step_2_no_load" 3 4 0.597491569846 -1 -1 0.478607661228 -1
"122" 4 "step_1_no_load" 1 2 2 NA NA 292 NA
"122" 4 "step_2_no_load" 5 6 0.564086293706 5 1 0.478607661228 285
"124" 4 "step_1_no_load" 1 2 2 NA NA 274 NA
"124" 4 "step_2_no_load" 5 6 0.597491569846 5 0 0.564086293706 475
"126" 4 "step_1_no_load" 1 2 1 NA NA 208 NA
"126" 4 "step_2_no_load" 5 6 0.478607661228 6 1 0.564086293706 555
"127" 4 "step_1_no_load" 1 2 1 NA NA 44 NA
"127" 4 "step_2_no_load" 3 4 0.564086293706 3 0 0.597491569846 828
"128" 4 "step_1_no_load" 1 2 1 NA NA 421 NA
"128" 4 "step_2_no_load" 3 4 0.564086293706 3 0 0.494597764192 640
"129" 4 "step_1_no_load" 1 2 1 NA NA 881 NA
"129" 4 "step_2_no_load" 3 4 0.494597764192 3 1 0.597491569846 1309
"130" 4 "step_1_no_load" 1 2 1 NA NA 294 NA
"130" 4 "step_2_no_load" 5 6 0.494597764192 6 0 0.478607661228 351
"134" 4 "step_1_no_load" 1 2 2 NA NA 1393 NA
"134" 4 "step_2_no_load" 3 4 0.478607661228 3 0 0.564086293706 1282
"135" 4 "step_1_no_load" 1 2 2 NA NA 372 NA
"135" 4 "step_2_no_load" 5 6 0.597491569846 5 1 0.478607661228 428
"138" 4 "step_1_no_load" 1 2 2 NA NA 513 NA
"138" 4 "step_2_no_load" 5 6 0.597491569846 5 0 0.478607661228 519
"139" 4 "step_1_no_load" 1 2 2 NA NA 481 NA
"139" 4 "step_2_no_load" 5 6 0.494597764192 5 1 0.478607661228 433
"140" 4 "step_1_no_load" 1 2 1 NA NA 473 NA
"140" 4 "step_2_no_load" 3 4 0.494597764192 3 1 0.597491569846 860
"142" 4 "step_1_no_load" 1 2 1 NA NA 749 NA
"142" 4 "step_2_no_load" 3 4 0.494597764192 4 0 0.597491569846 858
"143" 4 "step_1_no_load" 1 2 2 NA NA 711 NA
"143" 4 "step_2_no_load" 5 6 0.597491569846 6 1 0.478607661228 1050
"144" 4 "step_1_no_load" 1 2 2 NA NA 303 NA
"144" 4 "step_2_no_load" 3 4 0.494597764192 3 1 0.478607661228 360
"146" 4 "step_1_no_load" 1 2 2 NA NA 331 NA
"146" 4 "step_2_no_load" 5 6 0.478607661228 5 0 0.564086293706 335
"148" 4 "step_1_no_load" 1 2 1 NA NA 371 NA
"148" 4 "step_2_no_load" 3 4 0.494597764192 3 0 0.597491569846 556
"150" 4 "step_1_no_load" 1 2 2 NA NA 759 NA
"150" 4 "step_2_no_load" 3 4 0.597491569846 4 0 0.564086293706 762
"151" 4 "step_1_no_load" 1 2 1 NA NA 358 NA
"151" 4 "step_2_no_load" 3 4 0.597491569846 4 0 0.478607661228 547
"152" 4 "step_1_no_load" 1 2 1 NA NA 449 NA
"152" 4 "step_2_no_load" 3 4 0.564086293706 3 1 0.478607661228 1256
"153" 4 "step_1_no_load" 1 2 1 NA NA 1052 NA
"153" 4 "step_2_no_load" 3 4 0.597491569846 -1 -1 0.478607661228 -1
"154" 4 "step_1_no_load" 1 2 1 NA NA 432 NA
"154" 4 "step_2_no_load" 3 4 0.494597764192 3 1 0.564086293706 377
"156" 4 "step_1_no_load" 1 2 1 NA NA 243 NA
"156" 4 "step_2_no_load" 3 4 0.564086293706 4 0 0.597491569846 333
"159" 4 "step_1_no_load" 1 2 2 NA NA 594 NA
"159" 4 "step_2_no_load" 3 4 0.494597764192 4 1 0.597491569846 773
"160" 4 "step_1_no_load" 1 2 2 NA NA 395 NA
"160" 4 "step_2_no_load" 5 6 0.564086293706 6 1 0.478607661228 395
"161" 4 "step_1_no_load" 1 2 2 NA NA 375 NA
"161" 4 "step_2_no_load" 5 6 0.478607661228 5 0 0.564086293706 997
"165" 4 "step_1_no_load" 1 2 2 NA NA 752 NA
"165" 4 "step_2_no_load" 5 6 0.597491569846 6 0 0.478607661228 806
"166" 4 "step_1_no_load" 1 2 1 NA NA 1 NA
"166" 4 "step_2_no_load" 3 4 0.564086293706 3 1 0.597491569846 691
"167" 4 "step_1_no_load" 1 2 1 NA NA 477 NA
"167" 4 "step_2_no_load" 3 4 0.597491569846 3 0 0.564086293706 729
"169" 4 "step_1_no_load" 1 2 2 NA NA 541 NA
"169" 4 "step_2_no_load" 5 6 0.597491569846 6 1 0.478607661228 825
"170" 4 "step_1_no_load" 1 2 1 NA NA 429 NA
"170" 4 "step_2_no_load" 5 6 0.564086293706 6 0 0.478607661228 405
"178" 4 "step_1_no_load" 1 2 2 NA NA 616 NA
"178" 4 "step_2_no_load" 5 6 0.597491569846 6 1 0.564086293706 679
"180" 4 "step_1_no_load" 1 2 1 NA NA 252 NA
"180" 4 "step_2_no_load" 5 6 0.564086293706 6 1 0.597491569846 830
"182" 4 "step_1_no_load" 1 2 2 NA NA 242 NA
"182" 4 "step_2_no_load" 3 4 0.564086293706 4 1 0.597491569846 313
"183" 4 "step_1_no_load" 1 2 2 NA NA 561 NA
"183" 4 "step_2_no_load" 5 6 0.564086293706 5 1 0.478607661228 554
"184" 4 "step_1_no_load" 1 2 2 NA NA 580 NA
"184" 4 "step_2_no_load" 5 6 0.564086293706 5 1 0.597491569846 1191
"187" 4 "step_1_no_load" 1 2 1 NA NA 315 NA
"187" 4 "step_2_no_load" 3 4 0.494597764192 4 0 0.597491569846 1413
"188" 4 "step_1_no_load" 1 2 1 NA NA 238 NA
"188" 4 "step_2_no_load" 3 4 0.494597764192 3 1 0.564086293706 405
"194" 4 "step_1_no_load" 1 2 2 NA NA 640 NA
"194" 4 "step_2_no_load" 5 6 0.564086293706 6 0 0.494597764192 941
"195" 4 "step_1_no_load" 1 2 2 NA NA 502 NA
"195" 4 "step_2_no_load" 3 4 0.564086293706 3 0 0.494597764192 1126
"199" 4 "step_1_no_load" 1 2 1 NA NA 704 NA
"199" 4 "step_2_no_load" 3 4 0.494597764192 3 1 0.597491569846 811
"203" 4 "step_1_no_load" 1 2 2 NA NA 455 NA
"203" 4 "step_2_no_load" 3 4 0.494597764192 4 1 0.597491569846 776
"206" 4 "step_1_no_load" 1 2 2 NA NA 701 NA
"206" 4 "step_2_no_load" 3 4 0.494597764192 4 1 0.478607661228 1307
"207" 4 "step_1_no_load" 1 2 2 NA NA 904 NA
"207" 4 "step_2_no_load" 5 6 0.494597764192 6 0 0.564086293706 1208
"208" 4 "step_1_no_load" 1 2 1 NA NA 74 NA
"208" 4 "step_2_no_load" 5 6 0.494597764192 6 1 0.564086293706 654
"210" 4 "step_1_no_load" 1 2 1 NA NA 349 NA
"210" 4 "step_2_no_load" 5 6 0.478607661228 6 0 0.494597764192 795
"211" 4 "step_1_no_load" 1 2 2 NA NA 1061 NA
"211" 4 "step_2_no_load" 3 4 0.564086293706 4 0 0.478607661228 807
"212" 4 "step_1_no_load" 1 2 2 NA NA 515 NA
"212" 4 "step_2_no_load" 5 6 0.478607661228 5 0 0.494597764192 661
"213" 4 "step_1_no_load" 1 2 2 NA NA 604 NA
"213" 4 "step_2_no_load" 5 6 0.478607661228 6 1 0.564086293706 887
"217" 4 "step_1_no_load" 1 2 1 NA NA 284 NA
"217" 4 "step_2_no_load" 3 4 0.597491569846 4 0 0.478607661228 423
"220" 4 "step_1_no_load" 1 2 1 NA NA 409 NA
"220" 4 "step_2_no_load" 5 6 0.597491569846 6 1 0.564086293706 898
"229" 4 "step_1_no_load" 1 2 2 NA NA 1278 NA
"229" 4 "step_2_no_load" 5 6 0.478607661228 5 0 0.597491569846 704
"230" 4 "step_1_no_load" 1 2 2 NA NA 353 NA
"230" 4 "step_2_no_load" 5 6 0.597491569846 6 1 0.494597764192 463
"234" 4 "step_1_no_load" 1 2 1 NA NA 373 NA
"234" 4 "step_2_no_load" 3 4 0.478607661228 3 1 0.494597764192 1045
"235" 4 "step_1_no_load" 1 2 2 NA NA 651 NA
"235" 4 "step_2_no_load" 5 6 0.494597764192 5 1 0.597491569846 790
"238" 4 "step_1_no_load" 1 2 1 NA NA 688 NA
"238" 4 "step_2_no_load" 3 4 0.564086293706 -1 -1 0.494597764192 -1
"240" 4 "step_1_no_load" 1 2 2 NA NA 549 NA
"240" 4 "step_2_no_load" 5 6 0.478607661228 6 1 0.597491569846 1427
"241" 4 "step_1_no_load" 1 2 1 NA NA 737 NA
"241" 4 "step_2_no_load" 3 4 0.597491569846 3 0 0.478607661228 811
"248" 4 "step_1_no_load" 1 2 1 NA NA 224 NA
"248" 4 "step_2_no_load" 5 6 0.564086293706 6 0 0.478607661228 1356
"250" 4 "step_1_no_load" 1 2 1 NA NA 751 NA
"250" 4 "step_2_no_load" 3 4 0.564086293706 3 1 0.494597764192 654
"260" 4 "step_1_no_load" 1 2 1 NA NA 558 NA
"260" 4 "step_2_no_load" 3 4 0.478607661228 4 1 0.597491569846 1410
"263" 4 "step_1_no_load" 1 2 2 NA NA 206 NA
"263" 4 "step_2_no_load" 5 6 0.494597764192 6 1 0.597491569846 106
"264" 4 "step_1_no_load" 1 2 1 NA NA 139 NA
"264" 4 "step_2_no_load" 3 4 0.478607661228 3 0 0.564086293706 900
"270" 4 "step_1_no_load" 1 2 1 NA NA 364 NA
"270" 4 "step_2_no_load" 5 6 0.494597764192 6 0 0.478607661228 688
"271" 4 "step_1_no_load" 1 2 2 NA NA 406 NA
"271" 4 "step_2_no_load" 5 6 0.494597764192 6 1 0.478607661228 505
"273" 4 "step_1_no_load" 1 2 1 NA NA 590 NA
"273" 4 "step_2_no_load" 3 4 0.564086293706 3 0 0.597491569846 387
"274" 4 "step_1_no_load" 1 2 1 NA NA 406 NA
"274" 4 "step_2_no_load" 5 6 0.564086293706 6 1 0.597491569846 1458
"275" 4 "step_1_no_load" 1 2 2 NA NA 467 NA
"275" 4 "step_2_no_load" 5 6 0.494597764192 6 0 0.478607661228 527
"281" 4 "step_1_no_load" 1 2 1 NA NA 293 NA
"281" 4 "step_2_no_load" 3 4 0.494597764192 3 1 0.597491569846 424
"290" 4 "step_1_no_load" 1 2 1 NA NA 422 NA
"290" 4 "step_2_no_load" 3 4 0.494597764192 3 0 0.564086293706 336
"291" 4 "step_1_no_load" 1 2 1 NA NA 284 NA
"291" 4 "step_2_no_load" 3 4 0.478607661228 3 0 0.564086293706 431
"292" 4 "step_1_no_load" 1 2 1 NA NA 262 NA
"292" 4 "step_2_no_load" 3 4 0.564086293706 3 1 0.478607661228 534
"293" 4 "step_1_no_load" 1 2 1 NA NA 617 NA
"293" 4 "step_2_no_load" 3 4 0.494597764192 4 0 0.597491569846 671
"294" 4 "step_1_no_load" 1 2 2 NA NA 508 NA
"294" 4 "step_2_no_load" 3 4 0.494597764192 4 1 0.564086293706 1170
"296" 4 "step_1_no_load" 1 2 2 NA NA 840 NA
"296" 4 "step_2_no_load" 5 6 0.494597764192 6 1 0.564086293706 891
"298" 4 "step_1_no_load" 1 2 1 NA NA 768 NA
"298" 4 "step_2_no_load" 3 4 0.597491569846 3 1 0.478607661228 1321
"299" 4 "step_1_no_load" 1 2 1 NA NA 401 NA
"299" 4 "step_2_no_load" 5 6 0.478607661228 5 0 0.494597764192 974
"300" 4 "step_1_no_load" 1 2 1 NA NA 483 NA
"300" 4 "step_2_no_load" 3 4 0.478607661228 4 1 0.494597764192 409
"301" 4 "step_1_no_load" 1 2 1 NA NA 735 NA
"301" 4 "step_2_no_load" 5 6 0.478607661228 6 1 0.597491569846 645
"302" 4 "step_1_no_load" 1 2 1 NA NA 233 NA
"302" 4 "step_2_no_load" 5 6 0.597491569846 6 1 0.494597764192 521
"303" 4 "step_1_no_load" 1 2 1 NA NA 254 NA
"303" 4 "step_2_no_load" 3 4 0.564086293706 3 1 0.478607661228 257
"308" 4 "step_1_no_load" 1 2 2 NA NA 1112 NA
"308" 4 "step_2_no_load" 3 4 0.478607661228 4 0 0.494597764192 1173
"311" 4 "step_1_no_load" 1 2 2 NA NA 512 NA
"311" 4 "step_2_no_load" 5 6 0.564086293706 5 0 0.494597764192 463
"312" 4 "step_1_no_load" 1 2 2 NA NA 1373 NA
"312" 4 "step_2_no_load" 5 6 0.564086293706 -1 -1 0.597491569846 -1
"313" 4 "step_1_no_load" 1 2 2 NA NA 295 NA
"313" 4 "step_2_no_load" 3 4 0.597491569846 3 1 0.478607661228 901
"314" 4 "step_1_no_load" 1 2 1 NA NA 288 NA
"314" 4 "step_2_no_load" 3 4 0.564086293706 4 0 0.597491569846 704
"315" 4 "step_1_no_load" 1 2 1 NA NA 400 NA
"315" 4 "step_2_no_load" 3 4 0.597491569846 4 1 0.478607661228 371
"316" 4 "step_1_no_load" 1 2 1 NA NA 254 NA
"316" 4 "step_2_no_load" 3 4 0.494597764192 4 1 0.478607661228 864
"319" 4 "step_1_no_load" 1 2 1 NA NA 432 NA
"319" 4 "step_2_no_load" 3 4 0.494597764192 4 0 0.597491569846 739
"321" 4 "step_1_no_load" 1 2 1 NA NA 598 NA
"321" 4 "step_2_no_load" 5 6 0.597491569846 -1 -1 0.494597764192 -1
"331" 4 "step_1_no_load" 1 2 2 NA NA 483 NA
"331" 4 "step_2_no_load" 5 6 0.564086293706 6 1 0.478607661228 338
"333" 4 "step_1_no_load" 1 2 1 NA NA 403 NA
"333" 4 "step_2_no_load" 5 6 0.597491569846 6 1 0.564086293706 913
"335" 4 "step_1_no_load" 1 2 2 NA NA 429 NA
"335" 4 "step_2_no_load" 5 6 0.494597764192 5 1 0.597491569846 546
"337" 4 "step_1_no_load" 1 2 1 NA NA 825 NA
"337" 4 "step_2_no_load" 3 4 0.494597764192 4 0 0.478607661228 1082
"338" 4 "step_1_no_load" 1 2 1 NA NA 417 NA
"338" 4 "step_2_no_load" 3 4 0.564086293706 3 1 0.494597764192 447
"339" 4 "step_1_no_load" 1 2 2 NA NA 568 NA
"339" 4 "step_2_no_load" 3 4 0.494597764192 3 1 0.478607661228 1071
"344" 4 "step_1_no_load" 1 2 1 NA NA 368 NA
"344" 4 "step_2_no_load" 3 4 0.478607661228 3 0 0.494597764192 655
"345" 4 "step_1_no_load" 1 2 2 NA NA 316 NA
"345" 4 "step_2_no_load" 5 6 0.564086293706 6 1 0.597491569846 637
"348" 4 "step_1_no_load" 1 2 1 NA NA 414 NA
"348" 4 "step_2_no_load" 3 4 0.494597764192 4 0 0.478607661228 357
"349" 4 "step_1_no_load" 1 2 1 NA NA 579 NA
"349" 4 "step_2_no_load" 3 4 0.564086293706 3 1 0.494597764192 858
"350" 4 "step_1_no_load" 1 2 1 NA NA 513 NA
"350" 4 "step_2_no_load" 3 4 0.494597764192 4 1 0.478607661228 626
"353" 4 "step_1_no_load" 1 2 1 NA NA 735 NA
"353" 4 "step_2_no_load" 3 4 0.597491569846 3 0 0.494597764192 454
"356" 4 "step_1_no_load" 1 2 -1 NA NA -1 NA
"357" 4 "step_1_no_load" 1 2 1 NA NA 411 NA
"357" 4 "step_2_no_load" 3 4 0.494597764192 3 1 0.478607661228 601
"358" 4 "step_1_no_load" 1 2 2 NA NA 375 NA
"358" 4 "step_2_no_load" 3 4 0.597491569846 4 0 0.478607661228 350
"359" 4 "step_1_no_load" 1 2 1 NA NA 297 NA
"359" 4 "step_2_no_load" 3 4 0.478607661228 3 1 0.597491569846 415
"360" 4 "step_1_no_load" 1 2 1 NA NA 486 NA
"360" 4 "step_2_no_load" 5 6 0.564086293706 5 0 0.597491569846 349
"364" 4 "step_1_no_load" 1 2 2 NA NA 657 NA
"364" 4 "step_2_no_load" 5 6 0.597491569846 5 0 0.478607661228 1031
"110" 5 "step_1_no_load" 1 2 1 NA NA 428 NA
"110" 5 "step_2_no_load" 3 4 0.576104915614 3 1 0.495568760483 316
"111" 5 "step_1_no_load" 1 2 2 NA NA 566 NA
"111" 5 "step_2_no_load" 5 6 0.576104915614 6 1 0.495568760483 1231
"114" 5 "step_1_no_load" 1 2 2 NA NA 312 NA
"114" 5 "step_2_no_load" 5 6 0.543908521457 6 1 0.576104915614 289
"116" 5 "step_1_no_load" 1 2 1 NA NA 776 NA
"116" 5 "step_2_no_load" 3 4 0.576104915614 3 0 0.623810210114 1434
"117" 5 "step_1_no_load" 1 2 2 NA NA 549 NA
"117" 5 "step_2_no_load" 5 6 0.495568760483 5 1 0.623810210114 577
"119" 5 "step_1_no_load" 1 2 2 NA NA 672 NA
"119" 5 "step_2_no_load" 3 4 0.576104915614 3 1 0.543908521457 644
"120" 5 "step_1_no_load" 1 2 1 NA NA 313 NA
"120" 5 "step_2_no_load" 3 4 0.576104915614 3 1 0.543908521457 146
"121" 5 "step_1_no_load" 1 2 2 NA NA 652 NA
"121" 5 "step_2_no_load" 3 4 0.623810210114 3 0 0.495568760483 493
"122" 5 "step_1_no_load" 1 2 2 NA NA 296 NA
"122" 5 "step_2_no_load" 3 4 0.543908521457 3 1 0.623810210114 283
"124" 5 "step_1_no_load" 1 2 2 NA NA 319 NA
"124" 5 "step_2_no_load" 5 6 0.623810210114 6 1 0.576104915614 280
"126" 5 "step_1_no_load" 1 2 1 NA NA 237 NA
"126" 5 "step_2_no_load" 3 4 0.543908521457 4 0 0.623810210114 410
"127" 5 "step_1_no_load" 1 2 2 NA NA 443 NA
"127" 5 "step_2_no_load" 5 6 0.543908521457 6 1 0.495568760483 878
"128" 5 "step_1_no_load" 1 2 1 NA NA 454 NA
"128" 5 "step_2_no_load" 5 6 0.495568760483 5 0 0.623810210114 1059
"129" 5 "step_1_no_load" 1 2 1 NA NA 1357 NA
"129" 5 "step_2_no_load" 5 6 0.576104915614 5 0 0.495568760483 1169
"130" 5 "step_1_no_load" 1 2 1 NA NA 307 NA
"130" 5 "step_2_no_load" 3 4 0.576104915614 4 0 0.623810210114 1212
"134" 5 "step_1_no_load" 1 2 1 NA NA 311 NA
"134" 5 "step_2_no_load" 5 6 0.623810210114 5 1 0.543908521457 949
"135" 5 "step_1_no_load" 1 2 2 NA NA 548 NA
"135" 5 "step_2_no_load" 5 6 0.623810210114 6 0 0.495568760483 497
"138" 5 "step_1_no_load" 1 2 1 NA NA 452 NA
"138" 5 "step_2_no_load" 3 4 0.543908521457 4 1 0.576104915614 435
"139" 5 "step_1_no_load" 1 2 1 NA NA 7 NA
"139" 5 "step_2_no_load" 3 4 0.623810210114 3 1 0.576104915614 99
"140" 5 "step_1_no_load" 1 2 2 NA NA 397 NA
"140" 5 "step_2_no_load" 5 6 0.495568760483 6 0 0.576104915614 863
"142" 5 "step_1_no_load" 1 2 1 NA NA 725 NA
"142" 5 "step_2_no_load" 3 4 0.543908521457 3 1 0.623810210114 776
"143" 5 "step_1_no_load" 1 2 2 NA NA 691 NA
"143" 5 "step_2_no_load" 3 4 0.543908521457 3 1 0.576104915614 1311
"144" 5 "step_1_no_load" 1 2 2 NA NA 397 NA
"144" 5 "step_2_no_load" 5 6 0.576104915614 5 1 0.623810210114 424
"146" 5 "step_1_no_load" 1 2 1 NA NA 311 NA
"146" 5 "step_2_no_load" 3 4 0.623810210114 3 1 0.543908521457 730
"148" 5 "step_1_no_load" 1 2 1 NA NA 486 NA
"148" 5 "step_2_no_load" 3 4 0.543908521457 4 0 0.623810210114 509
"150" 5 "step_1_no_load" 1 2 -1 NA NA -1 NA
"151" 5 "step_1_no_load" 1 2 1 NA NA 259 NA
"151" 5 "step_2_no_load" 3 4 0.623810210114 4 0 0.495568760483 638
"152" 5 "step_1_no_load" 1 2 1 NA NA 214 NA
"152" 5 "step_2_no_load" 3 4 0.576104915614 3 0 0.495568760483 403
"153" 5 "step_1_no_load" 1 2 1 NA NA 524 NA
"153" 5 "step_2_no_load" 3 4 0.623810210114 4 0 0.495568760483 527
"154" 5 "step_1_no_load" 1 2 1 NA NA 335 NA
"154" 5 "step_2_no_load" 3 4 0.543908521457 3 0 0.576104915614 413
"156" 5 "step_1_no_load" 1 2 1 NA NA 432 NA
"156" 5 "step_2_no_load" 3 4 0.576104915614 4 1 0.623810210114 520
"159" 5 "step_1_no_load" 1 2 1 NA NA 431 NA
"159" 5 "step_2_no_load" 3 4 0.543908521457 4 0 0.623810210114 1013
"160" 5 "step_1_no_load" 1 2 2 NA NA 379 NA
"160" 5 "step_2_no_load" 5 6 0.576104915614 5 0 0.495568760483 452
"161" 5 "step_1_no_load" 1 2 1 NA NA 341 NA
"161" 5 "step_2_no_load" 3 4 0.623810210114 3 1 0.543908521457 493
"165" 5 "step_1_no_load" 1 2 2 NA NA 683 NA
"165" 5 "step_2_no_load" 3 4 0.543908521457 3 1 0.576104915614 603
"166" 5 "step_1_no_load" 1 2 2 NA NA 405 NA
"166" 5 "step_2_no_load" 5 6 0.495568760483 6 1 0.543908521457 740
"167" 5 "step_1_no_load" 1 2 1 NA NA 855 NA
"167" 5 "step_2_no_load" 3 4 0.623810210114 3 1 0.576104915614 749
"169" 5 "step_1_no_load" 1 2 2 NA NA 384 NA
"169" 5 "step_2_no_load" 5 6 0.623810210114 6 0 0.495568760483 469
"170" 5 "step_1_no_load" 1 2 1 NA NA 353 NA
"170" 5 "step_2_no_load" 3 4 0.543908521457 3 0 0.623810210114 1444
"178" 5 "step_1_no_load" 1 2 1 NA NA 455 NA
"178" 5 "step_2_no_load" 5 6 0.623810210114 5 1 0.576104915614 436
"180" 5 "step_1_no_load" 1 2 1 NA NA 760 NA
"180" 5 "step_2_no_load" 5 6 0.576104915614 6 1 0.623810210114 800
"182" 5 "step_1_no_load" 1 2 1 NA NA 0 NA
"182" 5 "step_2_no_load" 5 6 0.495568760483 5 1 0.543908521457 892
"183" 5 "step_1_no_load" 1 2 2 NA NA 578 NA
"183" 5 "step_2_no_load" 5 6 0.576104915614 5 1 0.495568760483 528
"184" 5 "step_1_no_load" 1 2 2 NA NA 402 NA
"184" 5 "step_2_no_load" 5 6 0.576104915614 5 1 0.623810210114 921
"187" 5 "step_1_no_load" 1 2 2 NA NA 244 NA
"187" 5 "step_2_no_load" 3 4 0.543908521457 4 1 0.623810210114 848
"188" 5 "step_1_no_load" 1 2 1 NA NA 455 NA
"188" 5 "step_2_no_load" 3 4 0.543908521457 4 1 0.576104915614 336
"194" 5 "step_1_no_load" 1 2 2 NA NA 503 NA
"194" 5 "step_2_no_load" 5 6 0.576104915614 6 1 0.543908521457 872
"195" 5 "step_1_no_load" 1 2 2 NA NA 1282 NA
"195" 5 "step_2_no_load" 3 4 0.576104915614 4 1 0.543908521457 658
"199" 5 "step_1_no_load" 1 2 1 NA NA 443 NA
"199" 5 "step_2_no_load" 3 4 0.543908521457 4 1 0.623810210114 804
"203" 5 "step_1_no_load" 1 2 2 NA NA 847 NA
"203" 5 "step_2_no_load" 3 4 0.543908521457 4 0 0.623810210114 631
"206" 5 "step_1_no_load" 1 2 2 NA NA 552 NA
"206" 5 "step_2_no_load" 3 4 0.543908521457 4 0 0.495568760483 1340
"207" 5 "step_1_no_load" 1 2 2 NA NA 1192 NA
"207" 5 "step_2_no_load" 5 6 0.543908521457 6 1 0.576104915614 31
"208" 5 "step_1_no_load" 1 2 2 NA NA 322 NA
"208" 5 "step_2_no_load" 5 6 0.543908521457 6 1 0.576104915614 464
"210" 5 "step_1_no_load" 1 2 2 NA NA 518 NA
"210" 5 "step_2_no_load" 3 4 0.623810210114 -1 -1 0.576104915614 -1
"211" 5 "step_1_no_load" 1 2 2 NA NA 628 NA
"211" 5 "step_2_no_load" 3 4 0.576104915614 -1 -1 0.495568760483 -1
"212" 5 "step_1_no_load" 1 2 2 NA NA 494 NA
"212" 5 "step_2_no_load" 3 4 0.623810210114 3 0 0.576104915614 882
"213" 5 "step_1_no_load" 1 2 2 NA NA 581 NA
"213" 5 "step_2_no_load" 3 4 0.623810210114 4 0 0.543908521457 508
"217" 5 "step_1_no_load" 1 2 2 NA NA 346 NA
"217" 5 "step_2_no_load" 3 4 0.623810210114 4 0 0.495568760483 426
"220" 5 "step_1_no_load" 1 2 1 NA NA 0 NA
"220" 5 "step_2_no_load" 3 4 0.543908521457 4 0 0.495568760483 309
"229" 5 "step_1_no_load" 1 2 2 NA NA 798 NA
"229" 5 "step_2_no_load" 5 6 0.495568760483 6 0 0.623810210114 175
"230" 5 "step_1_no_load" 1 2 2 NA NA 443 NA
"230" 5 "step_2_no_load" 3 4 0.495568760483 3 0 0.576104915614 492
"234" 5 "step_1_no_load" 1 2 1 NA NA 562 NA
"234" 5 "step_2_no_load" 3 4 0.495568760483 3 1 0.543908521457 1053
"235" 5 "step_1_no_load" 1 2 2 NA NA 889 NA
"235" 5 "step_2_no_load" 5 6 0.543908521457 5 0 0.623810210114 1105
"238" 5 "step_1_no_load" 1 2 1 NA NA 767 NA
"238" 5 "step_2_no_load" 5 6 0.623810210114 -1 -1 0.495568760483 -1
"240" 5 "step_1_no_load" 1 2 1 NA NA 368 NA
"240" 5 "step_2_no_load" 3 4 0.543908521457 3 0 0.576104915614 820
"241" 5 "step_1_no_load" 1 2 2 NA NA 654 NA
"241" 5 "step_2_no_load" 5 6 0.543908521457 5 1 0.576104915614 885
"248" 5 "step_1_no_load" 1 2 1 NA NA 223 NA
"248" 5 "step_2_no_load" 3 4 0.543908521457 3 1 0.623810210114 538
"250" 5 "step_1_no_load" 1 2 1 NA NA 671 NA
"250" 5 "step_2_no_load" 3 4 0.576104915614 3 1 0.543908521457 741
"260" 5 "step_1_no_load" 1 2 1 NA NA 629 NA
"260" 5 "step_2_no_load" 5 6 0.543908521457 5 1 0.576104915614 1324
"263" 5 "step_1_no_load" 1 2 2 NA NA 117 NA
"263" 5 "step_2_no_load" 5 6 0.543908521457 6 0 0.623810210114 499
"264" 5 "step_1_no_load" 1 2 1 NA NA 225 NA
"264" 5 "step_2_no_load" 5 6 0.623810210114 6 0 0.543908521457 495
"270" 5 "step_1_no_load" 1 2 1 NA NA 465 NA
"270" 5 "step_2_no_load" 3 4 0.623810210114 3 0 0.576104915614 935
"271" 5 "step_1_no_load" 1 2 2 NA NA 396 NA
"271" 5 "step_2_no_load" 5 6 0.543908521457 6 0 0.495568760483 580
"273" 5 "step_1_no_load" 1 2 2 NA NA 392 NA
"273" 5 "step_2_no_load" 5 6 0.543908521457 6 1 0.495568760483 1116
"274" 5 "step_1_no_load" 1 2 1 NA NA 356 NA
"274" 5 "step_2_no_load" 3 4 0.543908521457 3 0 0.495568760483 606
"275" 5 "step_1_no_load" 1 2 2 NA NA 634 NA
"275" 5 "step_2_no_load" 5 6 0.543908521457 5 1 0.495568760483 325
"281" 5 "step_1_no_load" 1 2 1 NA NA 348 NA
"281" 5 "step_2_no_load" 3 4 0.543908521457 4 1 0.623810210114 761
"290" 5 "step_1_no_load" 1 2 2 NA NA 1316 NA
"290" 5 "step_2_no_load" 5 6 0.495568760483 5 1 0.623810210114 1385
"291" 5 "step_1_no_load" 1 2 2 NA NA 411 NA
"291" 5 "step_2_no_load" 5 6 0.623810210114 6 0 0.543908521457 569
"292" 5 "step_1_no_load" 1 2 1 NA NA 220 NA
"292" 5 "step_2_no_load" 5 6 0.543908521457 5 1 0.623810210114 581
"293" 5 "step_1_no_load" 1 2 1 NA NA 1489 NA
"293" 5 "step_2_no_load" 3 4 0.543908521457 3 1 0.623810210114 1315
"294" 5 "step_1_no_load" 1 2 2 NA NA 620 NA
"294" 5 "step_2_no_load" 5 6 0.623810210114 6 1 0.495568760483 1051
"296" 5 "step_1_no_load" 1 2 2 NA NA 482 NA
"296" 5 "step_2_no_load" 5 6 0.543908521457 6 0 0.576104915614 606
"298" 5 "step_1_no_load" 1 2 1 NA NA 763 NA
"298" 5 "step_2_no_load" 3 4 0.623810210114 3 1 0.495568760483 808
"299" 5 "step_1_no_load" 1 2 2 NA NA 592 NA
"299" 5 "step_2_no_load" 5 6 0.495568760483 6 1 0.543908521457 1233
"300" 5 "step_1_no_load" 1 2 1 NA NA 178 NA
"300" 5 "step_2_no_load" 3 4 0.495568760483 4 1 0.543908521457 608
"301" 5 "step_1_no_load" 1 2 1 NA NA 7 NA
"301" 5 "step_2_no_load" 3 4 0.576104915614 3 1 0.543908521457 456
"302" 5 "step_1_no_load" 1 2 1 NA NA 508 NA
"302" 5 "step_2_no_load" 5 6 0.623810210114 6 0 0.543908521457 842
"303" 5 "step_1_no_load" 1 2 1 NA NA 250 NA
"303" 5 "step_2_no_load" 5 6 0.623810210114 6 0 0.543908521457 786
"308" 5 "step_1_no_load" 1 2 1 NA NA 615 NA
"308" 5 "step_2_no_load" 3 4 0.495568760483 3 0 0.543908521457 1148
"311" 5 "step_1_no_load" 1 2 2 NA NA 317 NA
"311" 5 "step_2_no_load" 5 6 0.576104915614 5 1 0.543908521457 378
"312" 5 "step_1_no_load" 1 2 2 NA NA 501 NA
"312" 5 "step_2_no_load" 5 6 0.576104915614 5 0 0.623810210114 450
"313" 5 "step_1_no_load" 1 2 1 NA NA 329 NA
"313" 5 "step_2_no_load" 3 4 0.623810210114 3 0 0.495568760483 514
"314" 5 "step_1_no_load" 1 2 1 NA NA 246 NA
"314" 5 "step_2_no_load" 3 4 0.576104915614 4 0 0.623810210114 367
"315" 5 "step_1_no_load" 1 2 1 NA NA 308 NA
"315" 5 "step_2_no_load" 3 4 0.623810210114 4 0 0.495568760483 390
"316" 5 "step_1_no_load" 1 2 1 NA NA 114 NA
"316" 5 "step_2_no_load" 3 4 0.543908521457 4 1 0.495568760483 706
"319" 5 "step_1_no_load" 1 2 2 NA NA 617 NA
"319" 5 "step_2_no_load" 5 6 0.576104915614 5 1 0.495568760483 614
"321" 5 "step_1_no_load" 1 2 2 NA NA 471 NA
"321" 5 "step_2_no_load" 3 4 0.495568760483 3 0 0.576104915614 1393
"331" 5 "step_1_no_load" 1 2 2 NA NA 425 NA
"331" 5 "step_2_no_load" 5 6 0.576104915614 6 0 0.495568760483 259
"333" 5 "step_1_no_load" 1 2 1 NA NA 386 NA
"333" 5 "step_2_no_load" 3 4 0.543908521457 3 1 0.495568760483 474
"335" 5 "step_1_no_load" 1 2 2 NA NA 509 NA
"335" 5 "step_2_no_load" 5 6 0.543908521457 5 0 0.623810210114 811
"337" 5 "step_1_no_load" 1 2 1 NA NA 911 NA
"337" 5 "step_2_no_load" 3 4 0.543908521457 4 0 0.495568760483 997
"338" 5 "step_1_no_load" 1 2 1 NA NA 380 NA
"338" 5 "step_2_no_load" 5 6 0.623810210114 5 1 0.495568760483 435
"339" 5 "step_1_no_load" 1 2 2 NA NA 434 NA
"339" 5 "step_2_no_load" 5 6 0.623810210114 5 0 0.576104915614 857
"344" 5 "step_1_no_load" 1 2 2 NA NA 322 NA
"344" 5 "step_2_no_load" 3 4 0.495568760483 4 1 0.543908521457 377
"345" 5 "step_1_no_load" 1 2 1 NA NA 310 NA
"345" 5 "step_2_no_load" 3 4 0.495568760483 3 0 0.543908521457 920
"348" 5 "step_1_no_load" 1 2 1 NA NA 457 NA
"348" 5 "step_2_no_load" 3 4 0.543908521457 3 1 0.495568760483 287
"349" 5 "step_1_no_load" 1 2 -1 NA NA -1 NA
"350" 5 "step_1_no_load" 1 2 1 NA NA 744 NA
"350" 5 "step_2_no_load" 3 4 0.543908521457 4 0 0.495568760483 399
"353" 5 "step_1_no_load" 1 2 2 NA NA 522 NA
"353" 5 "step_2_no_load" 3 4 0.623810210114 3 1 0.543908521457 348
"356" 5 "step_1_no_load" 1 2 1 NA NA 269 NA
"356" 5 "step_2_no_load" 3 4 0.543908521457 4 0 0.495568760483 1100
"357" 5 "step_1_no_load" 1 2 1 NA NA 435 NA
"357" 5 "step_2_no_load" 5 6 0.623810210114 6 0 0.576104915614 1171
"358" 5 "step_1_no_load" 1 2 2 NA NA 369 NA
"358" 5 "step_2_no_load" 5 6 0.543908521457 6 1 0.576104915614 680
"359" 5 "step_1_no_load" 1 2 1 NA NA 532 NA
"359" 5 "step_2_no_load" 3 4 0.495568760483 3 0 0.623810210114 484
"360" 5 "step_1_no_load" 1 2 1 NA NA 450 NA
"360" 5 "step_2_no_load" 3 4 0.495568760483 4 1 0.543908521457 536
"364" 5 "step_1_no_load" 1 2 2 NA NA 343 NA
"364" 5 "step_2_no_load" 5 6 0.623810210114 6 0 0.495568760483 844
"110" 6 "step_1_no_load" 1 2 1 NA NA 371 NA
"110" 6 "step_2_no_load" 5 6 0.490454120702 6 1 0.585722686883 1037
"111" 6 "step_1_no_load" 1 2 2 NA NA 247 NA
"111" 6 "step_2_no_load" 5 6 0.603642866427 6 0 0.506877622204 557
"114" 6 "step_1_no_load" 1 2 2 NA NA 496 NA
"114" 6 "step_2_no_load" 5 6 0.490454120702 6 1 0.603642866427 389
"116" 6 "step_1_no_load" 1 2 2 NA NA 1354 NA
"116" 6 "step_2_no_load" 3 4 0.603642866427 3 1 0.585722686883 1415
"117" 6 "step_1_no_load" 1 2 2 NA NA 589 NA
"117" 6 "step_2_no_load" 5 6 0.506877622204 5 0 0.585722686883 398
"119" 6 "step_1_no_load" 1 2 2 NA NA 575 NA
"119" 6 "step_2_no_load" 5 6 0.585722686883 5 1 0.506877622204 756
"120" 6 "step_1_no_load" 1 2 1 NA NA 14 NA
"120" 6 "step_2_no_load" 3 4 0.603642866427 3 0 0.490454120702 15
"121" 6 "step_1_no_load" 1 2 1 NA NA 712 NA
"121" 6 "step_2_no_load" 3 4 0.585722686883 4 1 0.506877622204 952
"122" 6 "step_1_no_load" 1 2 1 NA NA 427 NA
"122" 6 "step_2_no_load" 3 4 0.490454120702 3 1 0.585722686883 265
"124" 6 "step_1_no_load" 1 2 2 NA NA 302 NA
"124" 6 "step_2_no_load" 5 6 0.585722686883 6 0 0.603642866427 236
"126" 6 "step_1_no_load" 1 2 1 NA NA 298 NA
"126" 6 "step_2_no_load" 5 6 0.506877622204 6 0 0.603642866427 1045
"127" 6 "step_1_no_load" 1 2 2 NA NA 700 NA
"127" 6 "step_2_no_load" 5 6 0.490454120702 6 0 0.506877622204 935
"128" 6 "step_1_no_load" 1 2 1 NA NA 456 NA
"128" 6 "step_2_no_load" 3 4 0.603642866427 3 1 0.490454120702 873
"129" 6 "step_1_no_load" 1 2 1 NA NA 741 NA
"129" 6 "step_2_no_load" 3 4 0.490454120702 3 0 0.585722686883 1266
"130" 6 "step_1_no_load" 1 2 1 NA NA 470 NA
"130" 6 "step_2_no_load" 5 6 0.490454120702 5 0 0.506877622204 259
"134" 6 "step_1_no_load" 1 2 1 NA NA 299 NA
"134" 6 "step_2_no_load" 3 4 0.506877622204 3 0 0.603642866427 996
"135" 6 "step_1_no_load" 1 2 1 NA NA 575 NA
"135" 6 "step_2_no_load" 3 4 0.490454120702 3 0 0.603642866427 574
"138" 6 "step_1_no_load" 1 2 1 NA NA 505 NA
"138" 6 "step_2_no_load" 3 4 0.490454120702 3 0 0.603642866427 367
"139" 6 "step_1_no_load" 1 2 1 NA NA 123 NA
"139" 6 "step_2_no_load" 3 4 0.585722686883 3 0 0.603642866427 171
"140" 6 "step_1_no_load" 1 2 1 NA NA 650 NA
"140" 6 "step_2_no_load" 3 4 0.490454120702 3 1 0.585722686883 836
"142" 6 "step_1_no_load" 1 2 1 NA NA 1154 NA
"142" 6 "step_2_no_load" 5 6 0.506877622204 6 1 0.603642866427 1109
"143" 6 "step_1_no_load" 1 2 2 NA NA 344 NA
"143" 6 "step_2_no_load" 5 6 0.585722686883 6 1 0.506877622204 572
"144" 6 "step_1_no_load" 1 2 2 NA NA 319 NA
"144" 6 "step_2_no_load" 3 4 0.490454120702 3 1 0.506877622204 384
"146" 6 "step_1_no_load" 1 2 1 NA NA 394 NA
"146" 6 "step_2_no_load" 5 6 0.506877622204 5 0 0.603642866427 317
"148" 6 "step_1_no_load" 1 2 2 NA NA 563 NA
"148" 6 "step_2_no_load" 5 6 0.506877622204 6 1 0.603642866427 619
"150" 6 "step_1_no_load" 1 2 2 NA NA 517 NA
"150" 6 "step_2_no_load" 5 6 0.506877622204 6 0 0.490454120702 744
"151" 6 "step_1_no_load" 1 2 1 NA NA 297 NA
"151" 6 "step_2_no_load" 3 4 0.585722686883 3 1 0.506877622204 500
"152" 6 "step_1_no_load" 1 2 1 NA NA 87 NA
"152" 6 "step_2_no_load" 3 4 0.603642866427 4 0 0.506877622204 489
"153" 6 "step_1_no_load" 1 2 1 NA NA 615 NA
"153" 6 "step_2_no_load" 5 6 0.490454120702 5 1 0.603642866427 1176
"154" 6 "step_1_no_load" 1 2 2 NA NA 362 NA
"154" 6 "step_2_no_load" 5 6 0.585722686883 5 0 0.506877622204 565
"156" 6 "step_1_no_load" 1 2 1 NA NA 433 NA
"156" 6 "step_2_no_load" 3 4 0.603642866427 4 0 0.585722686883 429
"159" 6 "step_1_no_load" 1 2 2 NA NA 780 NA
"159" 6 "step_2_no_load" 5 6 0.603642866427 6 0 0.506877622204 1020
"160" 6 "step_1_no_load" 1 2 1 NA NA 380 NA
"160" 6 "step_2_no_load" 3 4 0.585722686883 3 1 0.490454120702 702
"161" 6 "step_1_no_load" 1 2 1 NA NA 424 NA
"161" 6 "step_2_no_load" 3 4 0.585722686883 4 0 0.490454120702 724
"165" 6 "step_1_no_load" 1 2 2 NA NA 466 NA
"165" 6 "step_2_no_load" 3 4 0.490454120702 3 1 0.603642866427 363
"166" 6 "step_1_no_load" 1 2 1 NA NA 261 NA
"166" 6 "step_2_no_load" 3 4 0.603642866427 4 0 0.585722686883 846
"167" 6 "step_1_no_load" 1 2 2 NA NA 854 NA
"167" 6 "step_2_no_load" 3 4 0.585722686883 3 1 0.603642866427 903
"169" 6 "step_1_no_load" 1 2 1 NA NA 309 NA
"169" 6 "step_2_no_load" 5 6 0.585722686883 5 1 0.506877622204 305
"170" 6 "step_1_no_load" 1 2 2 NA NA 409 NA
"170" 6 "step_2_no_load" 3 4 0.490454120702 4 1 0.585722686883 842
"178" 6 "step_1_no_load" 1 2 2 NA NA 441 NA
"178" 6 "step_2_no_load" 3 4 0.490454120702 4 0 0.506877622204 338
"180" 6 "step_1_no_load" 1 2 1 NA NA 258 NA
"180" 6 "step_2_no_load" 3 4 0.490454120702 3 1 0.506877622204 944
"182" 6 "step_1_no_load" 1 2 1 NA NA 234 NA
"182" 6 "step_2_no_load" 3 4 0.603642866427 4 1 0.585722686883 323
"183" 6 "step_1_no_load" 1 2 2 NA NA 617 NA
"183" 6 "step_2_no_load" 5 6 0.603642866427 5 0 0.506877622204 517
"184" 6 "step_1_no_load" 1 2 2 NA NA 419 NA
"184" 6 "step_2_no_load" 5 6 0.603642866427 5 1 0.585722686883 691
"187" 6 "step_1_no_load" 1 2 1 NA NA 490 NA
"187" 6 "step_2_no_load" 3 4 0.490454120702 3 0 0.585722686883 684
"188" 6 "step_1_no_load" 1 2 1 NA NA 268 NA
"188" 6 "step_2_no_load" 5 6 0.506877622204 5 0 0.585722686883 204
"194" 6 "step_1_no_load" 1 2 1 NA NA 413 NA
"194" 6 "step_2_no_load" 3 4 0.506877622204 4 0 0.585722686883 835
"195" 6 "step_1_no_load" 1 2 2 NA NA 452 NA
"195" 6 "step_2_no_load" 5 6 0.585722686883 6 1 0.506877622204 368
"199" 6 "step_1_no_load" 1 2 1 NA NA 518 NA
"199" 6 "step_2_no_load" 3 4 0.490454120702 3 0 0.585722686883 482
"203" 6 "step_1_no_load" 1 2 2 NA NA 318 NA
"203" 6 "step_2_no_load" 5 6 0.603642866427 5 1 0.506877622204 1042
"206" 6 "step_1_no_load" 1 2 1 NA NA 540 NA
"206" 6 "step_2_no_load" 3 4 0.490454120702 3 1 0.506877622204 53
"207" 6 "step_1_no_load" 1 2 2 NA NA 1236 NA
"207" 6 "step_2_no_load" 3 4 0.506877622204 4 0 0.585722686883 1250
"208" 6 "step_1_no_load" 1 2 2 NA NA 415 NA
"208" 6 "step_2_no_load" 3 4 0.506877622204 3 1 0.585722686883 508
"210" 6 "step_1_no_load" 1 2 1 NA NA 470 NA
"210" 6 "step_2_no_load" 3 4 0.585722686883 4 1 0.603642866427 725
"211" 6 "step_1_no_load" 1 2 -1 NA NA -1 NA
"212" 6 "step_1_no_load" 1 2 1 NA NA 463 NA
"212" 6 "step_2_no_load" 5 6 0.506877622204 6 0 0.490454120702 582
"213" 6 "step_1_no_load" 1 2 2 NA NA 538 NA
"213" 6 "step_2_no_load" 5 6 0.506877622204 6 1 0.603642866427 17
"217" 6 "step_1_no_load" 1 2 2 NA NA 312 NA
"217" 6 "step_2_no_load" 3 4 0.585722686883 3 1 0.506877622204 394
"220" 6 "step_1_no_load" 1 2 1 NA NA 6 NA
"220" 6 "step_2_no_load" 3 4 0.490454120702 4 0 0.506877622204 874
"229" 6 "step_1_no_load" 1 2 2 NA NA 658 NA
"229" 6 "step_2_no_load" 5 6 0.506877622204 6 0 0.585722686883 686
"230" 6 "step_1_no_load" 1 2 2 NA NA 342 NA
"230" 6 "step_2_no_load" 5 6 0.585722686883 6 1 0.490454120702 853
"234" 6 "step_1_no_load" 1 2 1 NA NA 627 NA
"234" 6 "step_2_no_load" 3 4 0.506877622204 3 0 0.490454120702 929
"235" 6 "step_1_no_load" 1 2 2 NA NA 634 NA
"235" 6 "step_2_no_load" 5 6 0.490454120702 5 0 0.585722686883 547
"238" 6 "step_1_no_load" 1 2 1 NA NA 412 NA
"238" 6 "step_2_no_load" 3 4 0.603642866427 4 1 0.490454120702 467
"240" 6 "step_1_no_load" 1 2 1 NA NA 427 NA
"240" 6 "step_2_no_load" 3 4 0.490454120702 3 0 0.603642866427 634
"241" 6 "step_1_no_load" 1 2 2 NA NA 919 NA
"241" 6 "step_2_no_load" 3 4 0.585722686883 3 1 0.506877622204 1338
"248" 6 "step_1_no_load" 1 2 1 NA NA 249 NA
"248" 6 "step_2_no_load" 3 4 0.490454120702 3 1 0.585722686883 518
"250" 6 "step_1_no_load" 1 2 1 NA NA 673 NA
"250" 6 "step_2_no_load" 3 4 0.603642866427 3 0 0.490454120702 504
"260" 6 "step_1_no_load" 1 2 1 NA NA 340 NA
"260" 6 "step_2_no_load" 5 6 0.490454120702 5 1 0.603642866427 1174
"263" 6 "step_1_no_load" 1 2 2 NA NA 86 NA
"263" 6 "step_2_no_load" 5 6 0.490454120702 5 0 0.585722686883 565
"264" 6 "step_1_no_load" 1 2 2 NA NA 747 NA
"264" 6 "step_2_no_load" 3 4 0.506877622204 4 0 0.603642866427 1075
"270" 6 "step_1_no_load" 1 2 2 NA NA 671 NA
"270" 6 "step_2_no_load" 5 6 0.490454120702 6 0 0.506877622204 1012
"271" 6 "step_1_no_load" 1 2 2 NA NA 340 NA
"271" 6 "step_2_no_load" 5 6 0.490454120702 6 0 0.506877622204 612
"273" 6 "step_1_no_load" 1 2 2 NA NA 766 NA
"273" 6 "step_2_no_load" 5 6 0.490454120702 6 1 0.506877622204 561
"274" 6 "step_1_no_load" 1 2 1 NA NA 453 NA
"274" 6 "step_2_no_load" 3 4 0.490454120702 -1 -1 0.506877622204 -1
"275" 6 "step_1_no_load" 1 2 2 NA NA 449 NA
"275" 6 "step_2_no_load" 5 6 0.490454120702 5 1 0.506877622204 880
"281" 6 "step_1_no_load" 1 2 1 NA NA 371 NA
"281" 6 "step_2_no_load" 5 6 0.506877622204 6 0 0.603642866427 601
"290" 6 "step_1_no_load" 1 2 2 NA NA 493 NA
"290" 6 "step_2_no_load" 5 6 0.506877622204 5 0 0.585722686883 1144
"291" 6 "step_1_no_load" 1 2 2 NA NA 833 NA
"291" 6 "step_2_no_load" 5 6 0.585722686883 6 1 0.490454120702 1448
"292" 6 "step_1_no_load" 1 2 1 NA NA 315 NA
"292" 6 "step_2_no_load" 5 6 0.490454120702 5 1 0.585722686883 635
"293" 6 "step_1_no_load" 1 2 1 NA NA 577 NA
"293" 6 "step_2_no_load" 3 4 0.490454120702 3 1 0.585722686883 465
"294" 6 "step_1_no_load" 1 2 2 NA NA 548 NA
"294" 6 "step_2_no_load" 3 4 0.490454120702 4 1 0.603642866427 718
"296" 6 "step_1_no_load" 1 2 1 NA NA 585 NA
"296" 6 "step_2_no_load" 3 4 0.585722686883 4 1 0.506877622204 1475
"298" 6 "step_1_no_load" 1 2 1 NA NA 1450 NA
"298" 6 "step_2_no_load" 3 4 0.585722686883 -1 -1 0.506877622204 -1
"299" 6 "step_1_no_load" 1 2 2 NA NA 487 NA
"299" 6 "step_2_no_load" 5 6 0.506877622204 6 1 0.490454120702 552
"300" 6 "step_1_no_load" 1 2 1 NA NA 456 NA
"300" 6 "step_2_no_load" 3 4 0.506877622204 4 0 0.490454120702 801
"301" 6 "step_1_no_load" 1 2 -1 NA NA -1 NA
"302" 6 "step_1_no_load" 1 2 2 NA NA 322 NA
"302" 6 "step_2_no_load" 3 4 0.603642866427 3 0 0.506877622204 695
"303" 6 "step_1_no_load" 1 2 1 NA NA 268 NA
"303" 6 "step_2_no_load" 3 4 0.603642866427 3 0 0.506877622204 514
"308" 6 "step_1_no_load" 1 2 2 NA NA 782 NA
"308" 6 "step_2_no_load" 3 4 0.506877622204 -1 -1 0.490454120702 -1
"311" 6 "step_1_no_load" 1 2 2 NA NA 459 NA
"311" 6 "step_2_no_load" 5 6 0.603642866427 5 1 0.490454120702 324
"312" 6 "step_1_no_load" 1 2 2 NA NA 533 NA
"312" 6 "step_2_no_load" 3 4 0.490454120702 4 0 0.506877622204 523
"313" 6 "step_1_no_load" 1 2 1 NA NA 321 NA
"313" 6 "step_2_no_load" 3 4 0.585722686883 4 0 0.506877622204 527
"314" 6 "step_1_no_load" 1 2 2 NA NA 576 NA
"314" 6 "step_2_no_load" 3 4 0.603642866427 3 0 0.585722686883 1304
"315" 6 "step_1_no_load" 1 2 2 NA NA 387 NA
"315" 6 "step_2_no_load" 5 6 0.603642866427 5 0 0.490454120702 779
"316" 6 "step_1_no_load" 1 2 1 NA NA 322 NA
"316" 6 "step_2_no_load" 3 4 0.490454120702 3 0 0.506877622204 559
"319" 6 "step_1_no_load" 1 2 2 NA NA 924 NA
"319" 6 "step_2_no_load" 5 6 0.603642866427 5 0 0.506877622204 668
"321" 6 "step_1_no_load" 1 2 1 NA NA 517 NA
"321" 6 "step_2_no_load" 3 4 0.506877622204 3 0 0.603642866427 994
"331" 6 "step_1_no_load" 1 2 1 NA NA 741 NA
"331" 6 "step_2_no_load" 5 6 0.603642866427 5 0 0.506877622204 700
"333" 6 "step_1_no_load" 1 2 1 NA NA 443 NA
"333" 6 "step_2_no_load" 3 4 0.490454120702 3 0 0.506877622204 705
"335" 6 "step_1_no_load" 1 2 1 NA NA 651 NA
"335" 6 "step_2_no_load" 3 4 0.506877622204 3 0 0.603642866427 1258
"337" 6 "step_1_no_load" 1 2 1 NA NA 739 NA
"337" 6 "step_2_no_load" 3 4 0.490454120702 3 1 0.506877622204 1010
"338" 6 "step_1_no_load" 1 2 1 NA NA 111 NA
"338" 6 "step_2_no_load" 3 4 0.603642866427 3 1 0.490454120702 502
"339" 6 "step_1_no_load" 1 2 2 NA NA 462 NA
"339" 6 "step_2_no_load" 5 6 0.585722686883 6 0 0.603642866427 830
"344" 6 "step_1_no_load" 1 2 1 NA NA 318 NA
"344" 6 "step_2_no_load" 3 4 0.506877622204 4 0 0.490454120702 701
"345" 6 "step_1_no_load" 1 2 2 NA NA 335 NA
"345" 6 "step_2_no_load" 3 4 0.506877622204 4 0 0.490454120702 746
"348" 6 "step_1_no_load" 1 2 1 NA NA 491 NA
"348" 6 "step_2_no_load" 3 4 0.490454120702 3 0 0.506877622204 602
"349" 6 "step_1_no_load" 1 2 1 NA NA 449 NA
"349" 6 "step_2_no_load" 3 4 0.603642866427 3 1 0.490454120702 736
"350" 6 "step_1_no_load" 1 2 2 NA NA 374 NA
"350" 6 "step_2_no_load" 5 6 0.603642866427 6 0 0.585722686883 453
"353" 6 "step_1_no_load" 1 2 2 NA NA 163 NA
"353" 6 "step_2_no_load" 5 6 0.603642866427 5 1 0.506877622204 971
"356" 6 "step_1_no_load" 1 2 1 NA NA 1465 NA
"356" 6 "step_2_no_load" 3 4 0.490454120702 4 0 0.506877622204 840
"357" 6 "step_1_no_load" 1 2 2 NA NA 542 NA
"357" 6 "step_2_no_load" 5 6 0.585722686883 6 1 0.603642866427 701
"358" 6 "step_1_no_load" 1 2 2 NA NA 460 NA
"358" 6 "step_2_no_load" 5 6 0.490454120702 6 1 0.603642866427 587
"359" 6 "step_1_no_load" 1 2 1 NA NA 380 NA
"359" 6 "step_2_no_load" 3 4 0.506877622204 3 1 0.585722686883 602
"360" 6 "step_1_no_load" 1 2 1 NA NA 469 NA
"360" 6 "step_2_no_load" 5 6 0.603642866427 6 0 0.585722686883 363
"364" 6 "step_1_no_load" 1 2 2 NA NA 282 NA
"364" 6 "step_2_no_load" 3 4 0.603642866427 3 1 0.490454120702 1233
"110" 7 "step_1_no_load" 1 2 1 NA NA 774 NA
"110" 7 "step_2_no_load" 5 6 0.506408070053 6 0 0.568656746487 1020
"111" 7 "step_1_no_load" 1 2 2 NA NA 317 NA
"111" 7 "step_2_no_load" 5 6 0.622642364361 5 1 0.500071913476 792
"114" 7 "step_1_no_load" 1 2 1 NA NA 424 NA
"114" 7 "step_2_no_load" 5 6 0.506408070053 5 0 0.622642364361 214
"116" 7 "step_1_no_load" 1 2 1 NA NA 782 NA
"116" 7 "step_2_no_load" 3 4 0.622642364361 4 1 0.568656746487 941
"117" 7 "step_1_no_load" 1 2 2 NA NA 1050 NA
"117" 7 "step_2_no_load" 5 6 0.500071913476 6 1 0.568656746487 543
"119" 7 "step_1_no_load" 1 2 2 NA NA 544 NA
"119" 7 "step_2_no_load" 5 6 0.568656746487 5 1 0.500071913476 523
"120" 7 "step_1_no_load" 1 2 2 NA NA 18 NA
"120" 7 "step_2_no_load" 5 6 0.500071913476 6 0 0.568656746487 549
"121" 7 "step_1_no_load" 1 2 2 NA NA 715 NA
"121" 7 "step_2_no_load" 5 6 0.622642364361 6 1 0.506408070053 1224
"122" 7 "step_1_no_load" 1 2 1 NA NA 283 NA
"122" 7 "step_2_no_load" 5 6 0.622642364361 6 0 0.500071913476 220
"124" 7 "step_1_no_load" 1 2 2 NA NA 363 NA
"124" 7 "step_2_no_load" 5 6 0.568656746487 5 0 0.622642364361 288
"126" 7 "step_1_no_load" 1 2 1 NA NA 247 NA
"126" 7 "step_2_no_load" 3 4 0.506408070053 3 0 0.568656746487 1073
"127" 7 "step_1_no_load" 1 2 2 NA NA 372 NA
"127" 7 "step_2_no_load" 5 6 0.506408070053 6 0 0.500071913476 824
"128" 7 "step_1_no_load" 1 2 1 NA NA 426 NA
"128" 7 "step_2_no_load" 5 6 0.500071913476 6 1 0.568656746487 514
"129" 7 "step_1_no_load" 1 2 -1 NA NA -1 NA
"130" 7 "step_1_no_load" 1 2 2 NA NA 1396 NA
"130" 7 "step_2_no_load" 3 4 0.622642364361 4 1 0.568656746487 135
"134" 7 "step_1_no_load" 1 2 1 NA NA 826 NA
"134" 7 "step_2_no_load" 3 4 0.500071913476 3 0 0.622642364361 716
"135" 7 "step_1_no_load" 1 2 1 NA NA 330 NA
"135" 7 "step_2_no_load" 3 4 0.506408070053 3 1 0.622642364361 422
"138" 7 "step_1_no_load" 1 2 1 NA NA 447 NA
"138" 7 "step_2_no_load" 3 4 0.506408070053 4 1 0.622642364361 387
"139" 7 "step_1_no_load" 1 2 2 NA NA 104 NA
"139" 7 "step_2_no_load" 3 4 0.568656746487 3 1 0.622642364361 319
"140" 7 "step_1_no_load" 1 2 2 NA NA 740 NA
"140" 7 "step_2_no_load" 5 6 0.500071913476 6 0 0.622642364361 715
"142" 7 "step_1_no_load" 1 2 1 NA NA 1424 NA
"142" 7 "step_2_no_load" 3 4 0.506408070053 3 1 0.568656746487 1254
"143" 7 "step_1_no_load" 1 2 2 NA NA 380 NA
"143" 7 "step_2_no_load" 5 6 0.568656746487 6 1 0.500071913476 459
"144" 7 "step_1_no_load" 1 2 2 NA NA 282 NA
"144" 7 "step_2_no_load" 3 4 0.506408070053 3 1 0.500071913476 557
"146" 7 "step_1_no_load" 1 2 1 NA NA 423 NA
"146" 7 "step_2_no_load" 5 6 0.500071913476 6 0 0.622642364361 1030
"148" 7 "step_1_no_load" 1 2 1 NA NA 321 NA
"148" 7 "step_2_no_load" 3 4 0.506408070053 3 0 0.568656746487 415
"150" 7 "step_1_no_load" 1 2 2 NA NA 366 NA
"150" 7 "step_2_no_load" 3 4 0.568656746487 -1 -1 0.622642364361 -1
"151" 7 "step_1_no_load" 1 2 1 NA NA 413 NA
"151" 7 "step_2_no_load" 3 4 0.568656746487 3 0 0.500071913476 417
"152" 7 "step_1_no_load" 1 2 1 NA NA 641 NA
"152" 7 "step_2_no_load" 5 6 0.568656746487 5 1 0.506408070053 721
"153" 7 "step_1_no_load" 1 2 1 NA NA 1097 NA
"153" 7 "step_2_no_load" 5 6 0.506408070053 5 0 0.622642364361 986
"154" 7 "step_1_no_load" 1 2 2 NA NA 296 NA
"154" 7 "step_2_no_load" 3 4 0.506408070053 4 0 0.622642364361 309
"156" 7 "step_1_no_load" 1 2 1 NA NA 277 NA
"156" 7 "step_2_no_load" 3 4 0.622642364361 4 1 0.568656746487 467
"159" 7 "step_1_no_load" 1 2 1 NA NA 648 NA
"159" 7 "step_2_no_load" 3 4 0.506408070053 3 1 0.568656746487 1237
"160" 7 "step_1_no_load" 1 2 1 NA NA 577 NA
"160" 7 "step_2_no_load" 3 4 0.568656746487 3 1 0.506408070053 416
"161" 7 "step_1_no_load" 1 2 2 NA NA 267 NA
"161" 7 "step_2_no_load" 3 4 0.568656746487 4 0 0.506408070053 693
"165" 7 "step_1_no_load" 1 2 1 NA NA 869 NA
"165" 7 "step_2_no_load" 3 4 0.506408070053 3 1 0.622642364361 863
"166" 7 "step_1_no_load" 1 2 1 NA NA 227 NA
"166" 7 "step_2_no_load" 3 4 0.622642364361 3 1 0.568656746487 812
"167" 7 "step_1_no_load" 1 2 2 NA NA 1014 NA
"167" 7 "step_2_no_load" 5 6 0.500071913476 6 1 0.506408070053 676
"169" 7 "step_1_no_load" 1 2 1 NA NA 376 NA
"169" 7 "step_2_no_load" 3 4 0.506408070053 4 1 0.622642364361 1212
"170" 7 "step_1_no_load" 1 2 1 NA NA 371 NA
"170" 7 "step_2_no_load" 5 6 0.622642364361 5 1 0.500071913476 559
"178" 7 "step_1_no_load" 1 2 1 NA NA 270 NA
"178" 7 "step_2_no_load" 5 6 0.568656746487 5 1 0.622642364361 326
"180" 7 "step_1_no_load" 1 2 2 NA NA 681 NA
"180" 7 "step_2_no_load" 5 6 0.622642364361 6 0 0.568656746487 748
"182" 7 "step_1_no_load" 1 2 2 NA NA 416 NA
"182" 7 "step_2_no_load" 5 6 0.500071913476 5 0 0.506408070053 261
"183" 7 "step_1_no_load" 1 2 2 NA NA 539 NA
"183" 7 "step_2_no_load" 5 6 0.622642364361 5 1 0.500071913476 523
"184" 7 "step_1_no_load" 1 2 2 NA NA 424 NA
"184" 7 "step_2_no_load" 5 6 0.622642364361 5 0 0.568656746487 549
"187" 7 "step_1_no_load" 1 2 2 NA NA 336 NA
"187" 7 "step_2_no_load" 5 6 0.622642364361 5 0 0.500071913476 797
"188" 7 "step_1_no_load" 1 2 2 NA NA 212 NA
"188" 7 "step_2_no_load" 5 6 0.500071913476 6 0 0.568656746487 57
"194" 7 "step_1_no_load" 1 2 1 NA NA 332 NA
"194" 7 "step_2_no_load" 3 4 0.500071913476 4 1 0.568656746487 671
"195" 7 "step_1_no_load" 1 2 2 NA NA 1077 NA
"195" 7 "step_2_no_load" 3 4 0.622642364361 -1 -1 0.506408070053 -1
"199" 7 "step_1_no_load" 1 2 1 NA NA 514 NA
"199" 7 "step_2_no_load" 3 4 0.506408070053 3 0 0.568656746487 290
"203" 7 "step_1_no_load" 1 2 2 NA NA 839 NA
"203" 7 "step_2_no_load" 5 6 0.622642364361 6 1 0.500071913476 995
"206" 7 "step_1_no_load" 1 2 1 NA NA 430 NA
"206" 7 "step_2_no_load" 3 4 0.506408070053 3 0 0.500071913476 917
"207" 7 "step_1_no_load" 1 2 2 NA NA 838 NA
"207" 7 "step_2_no_load" 5 6 0.506408070053 5 1 0.622642364361 678
"208" 7 "step_1_no_load" 1 2 2 NA NA 369 NA
"208" 7 "step_2_no_load" 5 6 0.506408070053 6 1 0.622642364361 631
"210" 7 "step_1_no_load" 1 2 2 NA NA 586 NA
"210" 7 "step_2_no_load" 5 6 0.500071913476 5 0 0.506408070053 996
"211" 7 "step_1_no_load" 1 2 2 NA NA 402 NA
"211" 7 "step_2_no_load" 5 6 0.506408070053 -1 -1 0.568656746487 -1
"212" 7 "step_1_no_load" 1 2 2 NA NA 283 NA
"212" 7 "step_2_no_load" 5 6 0.500071913476 6 0 0.506408070053 533
"213" 7 "step_1_no_load" 1 2 2 NA NA 689 NA
"213" 7 "step_2_no_load" 5 6 0.500071913476 6 1 0.622642364361 1006
"217" 7 "step_1_no_load" 1 2 1 NA NA 1007 NA
"217" 7 "step_2_no_load" 3 4 0.568656746487 3 0 0.500071913476 563
"220" 7 "step_1_no_load" 1 2 1 NA NA 614 NA
"220" 7 "step_2_no_load" 5 6 0.568656746487 5 0 0.622642364361 812
"229" 7 "step_1_no_load" 1 2 2 NA NA 593 NA
"229" 7 "step_2_no_load" 3 4 0.622642364361 4 1 0.506408070053 1054
"230" 7 "step_1_no_load" 1 2 2 NA NA 342 NA
"230" 7 "step_2_no_load" 5 6 0.568656746487 6 0 0.506408070053 594
"234" 7 "step_1_no_load" 1 2 1 NA NA 352 NA
"234" 7 "step_2_no_load" 5 6 0.568656746487 6 1 0.622642364361 1071
"235" 7 "step_1_no_load" 1 2 2 NA NA 611 NA
"235" 7 "step_2_no_load" 5 6 0.506408070053 5 0 0.568656746487 1181
"238" 7 "step_1_no_load" 1 2 1 NA NA 572 NA
"238" 7 "step_2_no_load" 3 4 0.622642364361 4 0 0.506408070053 588
"240" 7 "step_1_no_load" 1 2 2 NA NA 366 NA
"240" 7 "step_2_no_load" 5 6 0.500071913476 6 1 0.568656746487 1418
"241" 7 "step_1_no_load" 1 2 1 NA NA 1067 NA
"241" 7 "step_2_no_load" 3 4 0.568656746487 3 0 0.500071913476 1037
"248" 7 "step_1_no_load" 1 2 1 NA NA 308 NA
"248" 7 "step_2_no_load" 3 4 0.506408070053 3 1 0.568656746487 525
"250" 7 "step_1_no_load" 1 2 1 NA NA 627 NA
"250" 7 "step_2_no_load" 5 6 0.568656746487 -1 -1 0.500071913476 -1
"260" 7 "step_1_no_load" 1 2 1 NA NA 332 NA
"260" 7 "step_2_no_load" 5 6 0.506408070053 -1 -1 0.622642364361 -1
"263" 7 "step_1_no_load" 1 2 2 NA NA 7 NA
"263" 7 "step_2_no_load" 5 6 0.506408070053 6 0 0.568656746487 139
"264" 7 "step_1_no_load" 1 2 2 NA NA 575 NA
"264" 7 "step_2_no_load" 3 4 0.500071913476 4 1 0.622642364361 1111
"270" 7 "step_1_no_load" 1 2 1 NA NA 617 NA
"270" 7 "step_2_no_load" 3 4 0.568656746487 3 0 0.622642364361 718
"271" 7 "step_1_no_load" 1 2 2 NA NA 359 NA
"271" 7 "step_2_no_load" 5 6 0.506408070053 6 1 0.500071913476 500
"273" 7 "step_1_no_load" 1 2 2 NA NA 515 NA
"273" 7 "step_2_no_load" 3 4 0.622642364361 4 0 0.568656746487 88
"274" 7 "step_1_no_load" 1 2 1 NA NA 431 NA
"274" 7 "step_2_no_load" 3 4 0.506408070053 3 0 0.500071913476 602
"275" 7 "step_1_no_load" 1 2 2 NA NA 524 NA
"275" 7 "step_2_no_load" 5 6 0.506408070053 5 0 0.500071913476 919
"281" 7 "step_1_no_load" 1 2 1 NA NA 285 NA
"281" 7 "step_2_no_load" 3 4 0.506408070053 3 1 0.568656746487 448
"290" 7 "step_1_no_load" 1 2 2 NA NA 432 NA
"290" 7 "step_2_no_load" 3 4 0.506408070053 -1 -1 0.622642364361 -1
"291" 7 "step_1_no_load" 1 2 2 NA NA 641 NA
"291" 7 "step_2_no_load" 5 6 0.568656746487 6 0 0.506408070053 538
"292" 7 "step_1_no_load" 1 2 1 NA NA 373 NA
"292" 7 "step_2_no_load" 3 4 0.622642364361 3 1 0.500071913476 524
"293" 7 "step_1_no_load" 1 2 1 NA NA 448 NA
"293" 7 "step_2_no_load" 5 6 0.622642364361 5 0 0.500071913476 359
"294" 7 "step_1_no_load" 1 2 2 NA NA 469 NA
"294" 7 "step_2_no_load" 3 4 0.506408070053 4 1 0.622642364361 650
"296" 7 "step_1_no_load" 1 2 2 NA NA 1069 NA
"296" 7 "step_2_no_load" 5 6 0.506408070053 5 0 0.622642364361 1080
"298" 7 "step_1_no_load" 1 2 1 NA NA 372 NA
"298" 7 "step_2_no_load" 3 4 0.568656746487 3 1 0.500071913476 518
"299" 7 "step_1_no_load" 1 2 2 NA NA 413 NA
"299" 7 "step_2_no_load" 5 6 0.500071913476 6 1 0.506408070053 627
"300" 7 "step_1_no_load" 1 2 2 NA NA 326 NA
"300" 7 "step_2_no_load" 3 4 0.500071913476 3 0 0.506408070053 405
"301" 7 "step_1_no_load" 1 2 1 NA NA 479 NA
"301" 7 "step_2_no_load" 3 4 0.622642364361 3 0 0.506408070053 1001
"302" 7 "step_1_no_load" 1 2 2 NA NA 446 NA
"302" 7 "step_2_no_load" 5 6 0.568656746487 6 1 0.506408070053 612
"303" 7 "step_1_no_load" 1 2 1 NA NA 411 NA
"303" 7 "step_2_no_load" 3 4 0.622642364361 3 1 0.500071913476 602
"308" 7 "step_1_no_load" 1 2 1 NA NA 150 NA
"308" 7 "step_2_no_load" 3 4 0.500071913476 3 0 0.506408070053 160
"311" 7 "step_1_no_load" 1 2 2 NA NA 462 NA
"311" 7 "step_2_no_load" 5 6 0.622642364361 5 0 0.506408070053 603
"312" 7 "step_1_no_load" 1 2 2 NA NA 921 NA
"312" 7 "step_2_no_load" 5 6 0.622642364361 6 1 0.568656746487 417
"313" 7 "step_1_no_load" 1 2 2 NA NA 450 NA
"313" 7 "step_2_no_load" 3 4 0.568656746487 4 0 0.500071913476 604
"314" 7 "step_1_no_load" 1 2 2 NA NA 257 NA
"314" 7 "step_2_no_load" 3 4 0.622642364361 -1 -1 0.568656746487 -1
"315" 7 "step_1_no_load" 1 2 2 NA NA 313 NA
"315" 7 "step_2_no_load" 5 6 0.622642364361 6 1 0.506408070053 477
"316" 7 "step_1_no_load" 1 2 2 NA NA 463 NA
"316" 7 "step_2_no_load" 3 4 0.506408070053 3 0 0.500071913476 683
"319" 7 "step_1_no_load" 1 2 2 NA NA 425 NA
"319" 7 "step_2_no_load" 3 4 0.506408070053 4 0 0.568656746487 1334
"321" 7 "step_1_no_load" 1 2 2 NA NA 558 NA
"321" 7 "step_2_no_load" 5 6 0.568656746487 6 0 0.506408070053 723
"331" 7 "step_1_no_load" 1 2 2 NA NA 1088 NA
"331" 7 "step_2_no_load" 5 6 0.622642364361 5 0 0.500071913476 738
"333" 7 "step_1_no_load" 1 2 1 NA NA 379 NA
"333" 7 "step_2_no_load" 3 4 0.506408070053 4 0 0.500071913476 462
"335" 7 "step_1_no_load" 1 2 1 NA NA 333 NA
"335" 7 "step_2_no_load" 5 6 0.506408070053 -1 -1 0.568656746487 -1
"337" 7 "step_1_no_load" 1 2 1 NA NA 1023 NA
"337" 7 "step_2_no_load" 3 4 0.506408070053 3 0 0.500071913476 973
"338" 7 "step_1_no_load" 1 2 1 NA NA 449 NA
"338" 7 "step_2_no_load" 3 4 0.622642364361 3 0 0.506408070053 24
"339" 7 "step_1_no_load" 1 2 2 NA NA 769 NA
"339" 7 "step_2_no_load" 5 6 0.568656746487 -1 -1 0.622642364361 -1
"344" 7 "step_1_no_load" 1 2 2 NA NA 291 NA
"344" 7 "step_2_no_load" 3 4 0.500071913476 3 1 0.506408070053 890
"345" 7 "step_1_no_load" 1 2 2 NA NA 267 NA
"345" 7 "step_2_no_load" 5 6 0.622642364361 6 1 0.568656746487 872
"348" 7 "step_1_no_load" 1 2 1 NA NA 552 NA
"348" 7 "step_2_no_load" 3 4 0.506408070053 4 0 0.500071913476 383
"349" 7 "step_1_no_load" 1 2 1 NA NA 438 NA
"349" 7 "step_2_no_load" 5 6 0.568656746487 6 1 0.500071913476 1221
"350" 7 "step_1_no_load" 1 2 2 NA NA 489 NA
"350" 7 "step_2_no_load" 5 6 0.622642364361 5 1 0.568656746487 369
"353" 7 "step_1_no_load" 1 2 2 NA NA 153 NA
"353" 7 "step_2_no_load" 5 6 0.622642364361 5 1 0.500071913476 681
"356" 7 "step_1_no_load" 1 2 1 NA NA 374 NA
"356" 7 "step_2_no_load" 3 4 0.506408070053 3 1 0.500071913476 468
"357" 7 "step_1_no_load" 1 2 2 NA NA 448 NA
"357" 7 "step_2_no_load" 5 6 0.568656746487 6 1 0.622642364361 495
"358" 7 "step_1_no_load" 1 2 2 NA NA 457 NA
"358" 7 "step_2_no_load" 5 6 0.506408070053 6 1 0.622642364361 616
"359" 7 "step_1_no_load" 1 2 1 NA NA 606 NA
"359" 7 "step_2_no_load" 5 6 0.506408070053 5 1 0.622642364361 502
"360" 7 "step_1_no_load" 1 2 1 NA NA 624 NA
"360" 7 "step_2_no_load" 3 4 0.500071913476 4 1 0.506408070053 495
"364" 7 "step_1_no_load" 1 2 2 NA NA 702 NA
"364" 7 "step_2_no_load" 3 4 0.622642364361 3 1 0.506408070053 884
"110" 8 "step_1_no_load" 1 2 1 NA NA 592 NA
"110" 8 "step_2_no_load" 3 4 0.624210374623 3 1 0.489816616396 980
"111" 8 "step_1_no_load" 1 2 1 NA NA 337 NA
"111" 8 "step_2_no_load" 5 6 0.624210374623 5 1 0.489816616396 958
"114" 8 "step_1_no_load" 1 2 2 NA NA 268 NA
"114" 8 "step_2_no_load" 5 6 0.499203529332 6 1 0.624210374623 233
"116" 8 "step_1_no_load" 1 2 1 NA NA 624 NA
"116" 8 "step_2_no_load" 3 4 0.624210374623 4 0 0.59128639594 1229
"117" 8 "step_1_no_load" 1 2 1 NA NA 373 NA
"117" 8 "step_2_no_load" 5 6 0.489816616396 6 1 0.59128639594 573
"119" 8 "step_1_no_load" 1 2 2 NA NA 568 NA
"119" 8 "step_2_no_load" 5 6 0.59128639594 5 0 0.489816616396 445
"120" 8 "step_1_no_load" 1 2 2 NA NA 462 NA
"120" 8 "step_2_no_load" 5 6 0.489816616396 6 1 0.59128639594 123
"121" 8 "step_1_no_load" 1 2 1 NA NA 516 NA
"121" 8 "step_2_no_load" 3 4 0.59128639594 4 0 0.489816616396 647
"122" 8 "step_1_no_load" 1 2 1 NA NA 276 NA
"122" 8 "step_2_no_load" 3 4 0.499203529332 3 1 0.59128639594 282
"124" 8 "step_1_no_load" 1 2 2 NA NA 253 NA
"124" 8 "step_2_no_load" 5 6 0.59128639594 5 0 0.624210374623 311
"126" 8 "step_1_no_load" 1 2 1 NA NA 516 NA
"126" 8 "step_2_no_load" 5 6 0.489816616396 5 0 0.624210374623 876
"127" 8 "step_1_no_load" 1 2 1 NA NA 408 NA
"127" 8 "step_2_no_load" 3 4 0.624210374623 3 0 0.59128639594 835
"128" 8 "step_1_no_load" 1 2 1 NA NA 425 NA
"128" 8 "step_2_no_load" 3 4 0.624210374623 3 1 0.499203529332 746
"129" 8 "step_1_no_load" 1 2 2 NA NA 619 NA
"129" 8 "step_2_no_load" 3 4 0.499203529332 3 1 0.59128639594 1079
"130" 8 "step_1_no_load" 1 2 2 NA NA 306 NA
"130" 8 "step_2_no_load" 3 4 0.624210374623 4 1 0.59128639594 543
"134" 8 "step_1_no_load" 1 2 1 NA NA 511 NA
"134" 8 "step_2_no_load" 3 4 0.489816616396 4 0 0.624210374623 473
"135" 8 "step_1_no_load" 1 2 1 NA NA 546 NA
"135" 8 "step_2_no_load" 3 4 0.499203529332 3 0 0.624210374623 625
"138" 8 "step_1_no_load" 1 2 1 NA NA 417 NA
"138" 8 "step_2_no_load" 3 4 0.499203529332 4 1 0.624210374623 391
"139" 8 "step_1_no_load" 1 2 2 NA NA 246 NA
"139" 8 "step_2_no_load" 5 6 0.499203529332 6 0 0.489816616396 4
"140" 8 "step_1_no_load" 1 2 1 NA NA 681 NA
"140" 8 "step_2_no_load" 3 4 0.499203529332 3 1 0.59128639594 717
"142" 8 "step_1_no_load" 1 2 1 NA NA 797 NA
"142" 8 "step_2_no_load" 3 4 0.499203529332 4 0 0.59128639594 896
"143" 8 "step_1_no_load" 1 2 2 NA NA 50 NA
"143" 8 "step_2_no_load" 5 6 0.59128639594 6 0 0.489816616396 497
"144" 8 "step_1_no_load" 1 2 2 NA NA 296 NA
"144" 8 "step_2_no_load" 3 4 0.499203529332 3 0 0.489816616396 780
"146" 8 "step_1_no_load" 1 2 1 NA NA 20 NA
"146" 8 "step_2_no_load" 3 4 0.59128639594 3 1 0.499203529332 752
"148" 8 "step_1_no_load" 1 2 2 NA NA 352 NA
"148" 8 "step_2_no_load" 5 6 0.489816616396 6 0 0.624210374623 1083
"150" 8 "step_1_no_load" 1 2 1 NA NA 756 NA
"150" 8 "step_2_no_load" 5 6 0.489816616396 5 1 0.499203529332 821
"151" 8 "step_1_no_load" 1 2 1 NA NA 241 NA
"151" 8 "step_2_no_load" 3 4 0.59128639594 3 0 0.489816616396 676
"152" 8 "step_1_no_load" 1 2 1 NA NA 491 NA
"152" 8 "step_2_no_load" 5 6 0.59128639594 5 1 0.499203529332 742
"153" 8 "step_1_no_load" 1 2 1 NA NA 592 NA
"153" 8 "step_2_no_load" 3 4 0.59128639594 4 0 0.489816616396 1045
"154" 8 "step_1_no_load" 1 2 1 NA NA 323 NA
"154" 8 "step_2_no_load" 3 4 0.499203529332 3 1 0.624210374623 541
"156" 8 "step_1_no_load" 1 2 1 NA NA 405 NA
"156" 8 "step_2_no_load" 3 4 0.624210374623 4 1 0.59128639594 377
"159" 8 "step_1_no_load" 1 2 2 NA NA 625 NA
"159" 8 "step_2_no_load" 3 4 0.499203529332 4 1 0.59128639594 1098
"160" 8 "step_1_no_load" 1 2 1 NA NA 280 NA
"160" 8 "step_2_no_load" 3 4 0.59128639594 3 1 0.499203529332 528
"161" 8 "step_1_no_load" 1 2 2 NA NA 358 NA
"161" 8 "step_2_no_load" 5 6 0.489816616396 5 1 0.624210374623 616
"165" 8 "step_1_no_load" 1 2 1 NA NA 903 NA
"165" 8 "step_2_no_load" 3 4 0.499203529332 3 1 0.624210374623 687
"166" 8 "step_1_no_load" 1 2 1 NA NA 219 NA
"166" 8 "step_2_no_load" 5 6 0.489816616396 6 1 0.499203529332 609
"167" 8 "step_1_no_load" 1 2 1 NA NA 625 NA
"167" 8 "step_2_no_load" 3 4 0.59128639594 3 0 0.624210374623 964
"169" 8 "step_1_no_load" 1 2 2 NA NA 586 NA
"169" 8 "step_2_no_load" 5 6 0.59128639594 6 0 0.489816616396 388
"170" 8 "step_1_no_load" 1 2 2 NA NA 356 NA
"170" 8 "step_2_no_load" 3 4 0.499203529332 3 1 0.59128639594 788
"178" 8 "step_1_no_load" 1 2 1 NA NA 518 NA
"178" 8 "step_2_no_load" 3 4 0.499203529332 4 1 0.489816616396 345
"180" 8 "step_1_no_load" 1 2 1 NA NA 473 NA
"180" 8 "step_2_no_load" 3 4 0.499203529332 3 1 0.489816616396 819
"182" 8 "step_1_no_load" 1 2 2 NA NA 382 NA
"182" 8 "step_2_no_load" 3 4 0.624210374623 3 1 0.59128639594 443
"183" 8 "step_1_no_load" 1 2 2 NA NA 623 NA
"183" 8 "step_2_no_load" 5 6 0.624210374623 5 1 0.489816616396 672
"184" 8 "step_1_no_load" 1 2 2 NA NA 573 NA
"184" 8 "step_2_no_load" 5 6 0.624210374623 5 1 0.59128639594 1284
"187" 8 "step_1_no_load" 1 2 1 NA NA 204 NA
"187" 8 "step_2_no_load" 5 6 0.624210374623 5 1 0.489816616396 549
"188" 8 "step_1_no_load" 1 2 2 NA NA 277 NA
"188" 8 "step_2_no_load" 5 6 0.489816616396 6 1 0.59128639594 282
"194" 8 "step_1_no_load" 1 2 2 NA NA 352 NA
"194" 8 "step_2_no_load" 5 6 0.624210374623 6 0 0.499203529332 664
"195" 8 "step_1_no_load" 1 2 2 NA NA 949 NA
"195" 8 "step_2_no_load" 5 6 0.59128639594 6 0 0.489816616396 1343
"199" 8 "step_1_no_load" 1 2 1 NA NA 302 NA
"199" 8 "step_2_no_load" 3 4 0.499203529332 4 0 0.59128639594 349
"203" 8 "step_1_no_load" 1 2 2 NA NA 613 NA
"203" 8 "step_2_no_load" 5 6 0.624210374623 6 0 0.489816616396 568
"206" 8 "step_1_no_load" 1 2 2 NA NA 452 NA
"206" 8 "step_2_no_load" 5 6 0.624210374623 6 0 0.59128639594 680
"207" 8 "step_1_no_load" 1 2 2 NA NA 1143 NA
"207" 8 "step_2_no_load" 5 6 0.499203529332 6 0 0.624210374623 1236
"208" 8 "step_1_no_load" 1 2 2 NA NA 450 NA
"208" 8 "step_2_no_load" 5 6 0.499203529332 6 1 0.624210374623 544
"210" 8 "step_1_no_load" 1 2 2 NA NA 483 NA
"210" 8 "step_2_no_load" 3 4 0.59128639594 3 1 0.624210374623 723
"211" 8 "step_1_no_load" 1 2 -1 NA NA -1 NA
"212" 8 "step_1_no_load" 1 2 2 NA NA 497 NA
"212" 8 "step_2_no_load" 5 6 0.489816616396 6 0 0.499203529332 538
"213" 8 "step_1_no_load" 1 2 2 NA NA 604 NA
"213" 8 "step_2_no_load" 5 6 0.489816616396 6 0 0.624210374623 1163
"217" 8 "step_1_no_load" 1 2 2 NA NA 391 NA
"217" 8 "step_2_no_load" 5 6 0.624210374623 6 0 0.499203529332 532
"220" 8 "step_1_no_load" 1 2 1 NA NA 465 NA
"220" 8 "step_2_no_load" 3 4 0.499203529332 3 0 0.489816616396 968
"229" 8 "step_1_no_load" 1 2 2 NA NA 704 NA
"229" 8 "step_2_no_load" 5 6 0.489816616396 6 0 0.59128639594 522
"230" 8 "step_1_no_load" 1 2 2 NA NA 455 NA
"230" 8 "step_2_no_load" 5 6 0.59128639594 6 0 0.499203529332 665
"234" 8 "step_1_no_load" 1 2 1 NA NA 355 NA
"234" 8 "step_2_no_load" 3 4 0.489816616396 3 1 0.499203529332 909
"235" 8 "step_1_no_load" 1 2 2 NA NA 546 NA
"235" 8 "step_2_no_load" 5 6 0.499203529332 6 1 0.59128639594 678
"238" 8 "step_1_no_load" 1 2 1 NA NA 459 NA
"238" 8 "step_2_no_load" 3 4 0.624210374623 3 0 0.499203529332 1066
"240" 8 "step_1_no_load" 1 2 2 NA NA 302 NA
"240" 8 "step_2_no_load" 5 6 0.489816616396 6 1 0.59128639594 668
"241" 8 "step_1_no_load" 1 2 2 NA NA 604 NA
"241" 8 "step_2_no_load" 5 6 0.499203529332 5 1 0.624210374623 794
"248" 8 "step_1_no_load" 1 2 1 NA NA 231 NA
"248" 8 "step_2_no_load" 5 6 0.624210374623 5 1 0.489816616396 1160
"250" 8 "step_1_no_load" 1 2 1 NA NA 578 NA
"250" 8 "step_2_no_load" 3 4 0.624210374623 4 0 0.499203529332 748
"260" 8 "step_1_no_load" 1 2 1 NA NA 354 NA
"260" 8 "step_2_no_load" 3 4 0.489816616396 4 1 0.59128639594 684
"263" 8 "step_1_no_load" 1 2 1 NA NA 130 NA
"263" 8 "step_2_no_load" 3 4 0.624210374623 3 0 0.489816616396 386
"264" 8 "step_1_no_load" 1 2 2 NA NA 80 NA
"264" 8 "step_2_no_load" 5 6 0.59128639594 -1 -1 0.499203529332 -1
"270" 8 "step_1_no_load" 1 2 1 NA NA 581 NA
"270" 8 "step_2_no_load" 5 6 0.499203529332 5 1 0.489816616396 931
"271" 8 "step_1_no_load" 1 2 1 NA NA 380 NA
"271" 8 "step_2_no_load" 3 4 0.624210374623 3 1 0.59128639594 488
"273" 8 "step_1_no_load" 1 2 1 NA NA 350 NA
"273" 8 "step_2_no_load" 3 4 0.624210374623 3 1 0.59128639594 960
"274" 8 "step_1_no_load" 1 2 1 NA NA 368 NA
"274" 8 "step_2_no_load" 3 4 0.499203529332 3 1 0.489816616396 412
"275" 8 "step_1_no_load" 1 2 2 NA NA 0 NA
"275" 8 "step_2_no_load" 5 6 0.499203529332 6 0 0.489816616396 716
"281" 8 "step_1_no_load" 1 2 1 NA NA 454 NA
"281" 8 "step_2_no_load" 3 4 0.499203529332 3 0 0.59128639594 849
"290" 8 "step_1_no_load" 1 2 2 NA NA 442 NA
"290" 8 "step_2_no_load" 5 6 0.489816616396 6 1 0.59128639594 577
"291" 8 "step_1_no_load" 1 2 1 NA NA 411 NA
"291" 8 "step_2_no_load" 3 4 0.489816616396 3 1 0.624210374623 1046
"292" 8 "step_1_no_load" 1 2 1 NA NA 305 NA
"292" 8 "step_2_no_load" 5 6 0.499203529332 5 0 0.59128639594 321
"293" 8 "step_1_no_load" 1 2 1 NA NA 729 NA
"293" 8 "step_2_no_load" 3 4 0.499203529332 3 0 0.59128639594 1388
"294" 8 "step_1_no_load" 1 2 2 NA NA 577 NA
"294" 8 "step_2_no_load" 5 6 0.59128639594 6 1 0.489816616396 721
"296" 8 "step_1_no_load" 1 2 1 NA NA 889 NA
"296" 8 "step_2_no_load" 5 6 0.499203529332 5 0 0.624210374623 1264
"298" 8 "step_1_no_load" 1 2 1 NA NA 320 NA
"298" 8 "step_2_no_load" 5 6 0.499203529332 5 0 0.624210374623 551
"299" 8 "step_1_no_load" 1 2 2 NA NA 348 NA
"299" 8 "step_2_no_load" 3 4 0.624210374623 3 0 0.59128639594 828
"300" 8 "step_1_no_load" 1 2 2 NA NA 302 NA
"300" 8 "step_2_no_load" 5 6 0.624210374623 6 1 0.59128639594 430
"301" 8 "step_1_no_load" 1 2 1 NA NA 1 NA
"301" 8 "step_2_no_load" 3 4 0.624210374623 3 0 0.499203529332 1146
"302" 8 "step_1_no_load" 1 2 1 NA NA 534 NA
"302" 8 "step_2_no_load" 3 4 0.624210374623 3 1 0.489816616396 1255
"303" 8 "step_1_no_load" 1 2 1 NA NA 237 NA
"303" 8 "step_2_no_load" 3 4 0.624210374623 3 1 0.489816616396 288
"308" 8 "step_1_no_load" 1 2 2 NA NA 1404 NA
"308" 8 "step_2_no_load" 3 4 0.489816616396 -1 -1 0.499203529332 -1
"311" 8 "step_1_no_load" 1 2 1 NA NA 399 NA
"311" 8 "step_2_no_load" 5 6 0.624210374623 6 1 0.499203529332 807
"312" 8 "step_1_no_load" 1 2 2 NA NA 744 NA
"312" 8 "step_2_no_load" 3 4 0.499203529332 3 1 0.489816616396 1039
"313" 8 "step_1_no_load" 1 2 2 NA NA 979 NA
"313" 8 "step_2_no_load" 5 6 0.499203529332 5 0 0.624210374623 518
"314" 8 "step_1_no_load" 1 2 2 NA NA 488 NA
"314" 8 "step_2_no_load" 5 6 0.489816616396 6 1 0.499203529332 439
"315" 8 "step_1_no_load" 1 2 2 NA NA 372 NA
"315" 8 "step_2_no_load" 3 4 0.59128639594 4 0 0.489816616396 382
"316" 8 "step_1_no_load" 1 2 2 NA NA 602 NA
"316" 8 "step_2_no_load" 5 6 0.624210374623 6 0 0.59128639594 559
"319" 8 "step_1_no_load" 1 2 2 NA NA 1264 NA
"319" 8 "step_2_no_load" 5 6 0.624210374623 5 1 0.489816616396 829
"321" 8 "step_1_no_load" 1 2 2 NA NA 4 NA
"321" 8 "step_2_no_load" 3 4 0.489816616396 3 0 0.624210374623 726
"331" 8 "step_1_no_load" 1 2 1 NA NA 1001 NA
"331" 8 "step_2_no_load" 3 4 0.59128639594 4 0 0.499203529332 570
"333" 8 "step_1_no_load" 1 2 2 NA NA 293 NA
"333" 8 "step_2_no_load" 3 4 0.499203529332 3 0 0.489816616396 1455
"335" 8 "step_1_no_load" 1 2 1 NA NA 352 NA
"335" 8 "step_2_no_load" 5 6 0.499203529332 5 0 0.59128639594 664
"337" 8 "step_1_no_load" 1 2 1 NA NA 482 NA
"337" 8 "step_2_no_load" 3 4 0.499203529332 3 1 0.489816616396 632
"338" 8 "step_1_no_load" 1 2 1 NA NA 709 NA
"338" 8 "step_2_no_load" 3 4 0.624210374623 4 0 0.499203529332 372
"339" 8 "step_1_no_load" 1 2 2 NA NA 484 NA
"339" 8 "step_2_no_load" 5 6 0.59128639594 6 1 0.624210374623 652
"344" 8 "step_1_no_load" 1 2 1 NA NA 687 NA
"344" 8 "step_2_no_load" 5 6 0.624210374623 5 1 0.59128639594 1087
"345" 8 "step_1_no_load" 1 2 2 NA NA 336 NA
"345" 8 "step_2_no_load" 5 6 0.624210374623 6 1 0.59128639594 508
"348" 8 "step_1_no_load" 1 2 2 NA NA 387 NA
"348" 8 "step_2_no_load" 5 6 0.59128639594 6 0 0.624210374623 290
"349" 8 "step_1_no_load" 1 2 1 NA NA 320 NA
"349" 8 "step_2_no_load" 5 6 0.59128639594 6 0 0.489816616396 927
"350" 8 "step_1_no_load" 1 2 1 NA NA 510 NA
"350" 8 "step_2_no_load" 5 6 0.624210374623 6 0 0.59128639594 359
"353" 8 "step_1_no_load" 1 2 1 NA NA 278 NA
