block number	trial number	trial contents	set1	set2	set3	set4	set5	set6	set7	set8	set9	set10	set11	set12	set13	set14	set15	set_Ex1	set_Ex2	set_Ex3	set_Ex4	set_Ex5	set_Ex6	correct_operation	incorrect_operation	response	RT	
1	1	IS  (5 x 1) - 1 = 4   ?, balle	0	0	0	0	0	0	0	0	0	0	0	0	0	0	0	1	0	0	0	0	0	1	0	correct	7149	
2	1	IS  (2 x 3) + 1 = 4   ?, bouche	0	0	0	0	0	0	0	0	0	0	0	0	0	0	0	0	1	0	0	0	0	0	1	incorrect	8211	
3	1	IS  (6 x 3) + 2 = 17   ?, sol	0	0	0	0	0	0	0	0	0	0	0	0	0	0	0	0	0	1	0	0	0	0	1	incorrect	3211	
4	1	IS  (2 x 2) + 1 = 4   ?, groupe	0	0	0	0	0	0	0	0	0	0	0	0	0	0	0	0	0	0	1	0	0	0	1	incorrect	3097	
5	1	dummy	sol	
5	1	dummy	groupe	
6	1	IS  (3 : 1) - 2 = 3   ?, prix	0	0	0	0	0	0	0	0	0	0	0	0	0	0	0	0	0	0	0	1	0	0	1	incorrect	2565	
7	1	IS  (10 : 2) + 4 = 3   ?, pain	0	0	0	0	0	0	0	0	0	0	0	0	0	0	0	0	0	0	0	0	1	0	1	incorrect	4862	
8	1	dummy	²prix	
8	1	dummy	pain	
9	1	IS  (5 : 1) + 4 = 9   ?, argent	1	0	0	0	0	0	0	0	0	0	0	0	0	0	0	0	0	0	0	0	0	1	0	correct	3800	
9	2	IS  (9 x 2) - 3 = 16   ?, lait	1	0	0	0	0	0	0	0	0	0	0	0	0	0	0	0	0	0	0	0	0	0	1	incorrect	3648	
9	3	IS  (8 : 2) + 4 = 2   ?, bois	1	0	0	0	0	0	0	0	0	0	0	0	0	0	0	0	0	0	0	0	0	0	1	incorrect	3456	
10	1	dummy	argent	
10	1	dummy	lait	
10	1	dummy	bois	
11	1	IS  (8 x 1) + 5 = 13   ?, mot	0	1	0	0	0	0	0	0	0	0	0	0	0	0	0	0	0	0	0	0	0	1	0	correct	4690	
11	2	IS  (9 : 3) - 2 = 1   ?, coeur	0	1	0	0	0	0	0	0	0	0	0	0	0	0	0	0	0	0	0	0	0	1	0	correct	3490	
11	3	IS  (8 x 1) + 8 = 16   ?, air	0	1	0	0	0	0	0	0	0	0	0	0	0	0	0	0	0	0	0	0	0	1	0	correct	2010	
11	4	IS  (8 : 8) + 1 = 2   ?, coffre	0	1	0	0	0	0	0	0	0	0	0	0	0	0	0	0	0	0	0	0	0	1	0	correct	4085	
11	5	IS  (10 : 10) - 1 = 2   ?, rêve	0	1	0	0	0	0	0	0	0	0	0	0	0	0	0	0	0	0	0	0	0	0	1	incorrect	7502	
12	1	dummy	mot	
12	1	dummy	coeur	
12	1	dummy	air	
12	1	dummy	coffre	
12	1	dummy	 	
13	1	IS  (9 : 1) - 7 = 4   ?, bicyclette	0	0	1	0	0	0	0	0	0	0	0	0	0	0	0	0	0	0	0	0	0	0	1	incorrect	6633	
13	2	IS  (6 x 2) - 3 = 10   ?, fourchette	0	0	1	0	0	0	0	0	0	0	0	0	0	0	0	0	0	0	0	0	0	0	1	incorrect	4180	
13	3	IS  (4 x 4) + 1 = 17   ?, sac	0	0	1	0	0	0	0	0	0	0	0	0	0	0	0	0	0	0	0	0	0	1	0	correct	3786	
14	1	dummy	bicyclette	
14	1	dummy	fourchette	
14	1	dummy	sac	
15	1	IS  (8 x 4) + 2 = 34   ?, tissu	0	0	0	1	0	0	0	0	0	0	0	0	0	0	0	0	0	0	0	0	0	1	0	correct	3165	
15	2	IS  (3 : 1) + 3 = 6   ?, fête	0	0	0	1	0	0	0	0	0	0	0	0	0	0	0	0	0	0	0	0	0	1	0	correct	2929	
16	1	dummy	tissu	
16	1	dummy	fête	
17	1	IS  (7 x 2) - 3 = 11   ?, cri	0	0	0	0	1	0	0	0	0	0	0	0	0	0	0	0	0	0	0	0	0	1	0	correct	3207	
17	2	IS  (10 x 2) + 3 = 23   ?, voie	0	0	0	0	1	0	0	0	0	0	0	0	0	0	0	0	0	0	0	0	0	1	0	correct	2293	
17	3	IS  (4 : 1) + 1 = 4   ?, maison	0	0	0	0	1	0	0	0	0	0	0	0	0	0	0	0	0	0	0	0	0	0	1	incorrect	4871	
17	4	IS  (4 : 1) - 4 = 2   ?, verre	0	0	0	0	1	0	0	0	0	0	0	0	0	0	0	0	0	0	0	0	0	0	1	incorrect	4061	
17	5	IS  (10 : 1) + 1 = 10   ?, pierre	0	0	0	0	1	0	0	0	0	0	0	0	0	0	0	0	0	0	0	0	0	0	1	incorrect	3016	
18	1	dummy	cri	
18	1	dummy	voie	
18	1	dummy	maison	
18	1	dummy	air	
18	1	dummy	pierre	
19	1	IS  (9 x 2) + 1 = 18   ?, enfant	0	0	0	0	0	1	0	0	0	0	0	0	0	0	0	0	0	0	0	0	0	0	1	incorrect	4667	
19	2	IS  (3 x 2) + 1 = 6   ?, tête	0	0	0	0	0	1	0	0	0	0	0	0	0	0	0	0	0	0	0	0	0	0	1	incorrect	1605	
19	3	IS  (5 x 2) + 1 = 6   ?, plan	0	0	0	0	0	1	0	0	0	0	0	0	0	0	0	0	0	0	0	0	0	0	1	incorrect	1777	
19	4	IS  (9 : 1) - 5 = 4   ?, montre	0	0	0	0	0	1	0	0	0	0	0	0	0	0	0	0	0	0	0	0	0	1	0	correct	3058	
19	5	IS  (9 x 1) - 1 = 8   ?, escalier	0	0	0	0	0	1	0	0	0	0	0	0	0	0	0	0	0	0	0	0	0	1	0	correct	2467	
20	1	dummy	enfant	
20	1	dummy	tête	
20	1	dummy	plan	
20	1	dummy	montre	
20	1	dummy	escalier	
21	1	IS  (10 : 2) - 3 = 2   ?, serrure	0	0	0	0	0	0	1	0	0	0	0	0	0	0	0	0	0	0	0	0	0	1	0	correct	3776	
21	2	IS  (4 : 2) + 1 = 6   ?, homme	0	0	0	0	0	0	1	0	0	0	0	0	0	0	0	0	0	0	0	0	0	0	1	incorrect	3263	
21	3	IS  (10 : 2) + 4 = 9   ?, bouteille	0	0	0	0	0	0	1	0	0	0	0	0	0	0	0	0	0	0	0	0	0	1	0	correct	2335	
21	4	IS  (4 x 2) + 1 = 9   ?, montagne	0	0	0	0	0	0	1	0	0	0	0	0	0	0	0	0	0	0	0	0	0	1	0	correct	1388	
21	5	IS  (9 : 3) - 1 = 2   ?, sang	0	0	0	0	0	0	1	0	0	0	0	0	0	0	0	0	0	0	0	0	0	1	0	correct	2981	
21	6	IS  (6 x 1) - 4 = 1   ?, chemise	0	0	0	0	0	0	1	0	0	0	0	0	0	0	0	0	0	0	0	0	0	0	1	incorrect	3721	
22	1	dummy	serrure	
22	1	dummy	homme	
22	1	dummy	bouteille	
22	1	dummy	montagne	
22	1	dummy	champ	
22	1	dummy	 	
23	1	IS  (9 : 3) - 2 = 2   ?, film	0	0	0	0	0	0	0	1	0	0	0	0	0	0	0	0	0	0	0	0	0	0	1	incorrect	3372	
23	2	IS  (9 x 3) - 2 = 25   ?, carte	0	0	0	0	0	0	0	1	0	0	0	0	0	0	0	0	0	0	0	0	0	1	0	correct	2192	
23	3	IS  (6 : 3) + 2 = 4   ?, cheval	0	0	0	0	0	0	0	1	0	0	0	0	0	0	0	0	0	0	0	0	0	1	0	correct	2437	
23	4	IS  (8 : 1) - 6 = 4   ?, chaise	0	0	0	0	0	0	0	1	0	0	0	0	0	0	0	0	0	0	0	0	0	0	1	incorrect	2248	
24	1	dummy	film	
24	1	dummy	carte	
24	1	dummy	cheval	
24	1	dummy	chaise	
25	1	IS  (6 : 2) - 2 = 2   ?, classe	0	0	0	0	0	0	0	0	1	0	0	0	0	0	0	0	0	0	0	0	0	0	1	incorrect	2094	
25	2	IS  (3 x 3) - 1 = 8   ?, robinet	0	0	0	0	0	0	0	0	1	0	0	0	0	0	0	0	0	0	0	0	0	1	0	correct	1675	
25	3	IS  (8 x 4) - 2 = 32   ?, bouton	0	0	0	0	0	0	0	0	1	0	0	0	0	0	0	0	0	0	0	0	0	0	1	incorrect	1992	
25	4	IS  (5 : 5) + 1 = 2   ?, village	0	0	0	0	0	0	0	0	1	0	0	0	0	0	0	0	0	0	0	0	0	1	0	correct	2366	
25	5	IS  (3 x 1) + 2 = 2   ?, assiette	0	0	0	0	0	0	0	0	1	0	0	0	0	0	0	0	0	0	0	0	0	0	1	incorrect	2036	
25	6	IS  (7 x 2) - 1 = 14   ?, rouleau	0	0	0	0	0	0	0	0	1	0	0	0	0	0	0	0	0	0	0	0	0	0	1	incorrect	2427	
26	1	dummy	classe	
26	1	dummy	robinet	
26	1	dummy	bouton	
26	1	dummy	village	
26	1	dummy	assiette	
26	1	dummy	mouton	
27	1	IS  (7 x 1) + 6 = 13   ?, travail	0	0	0	0	0	0	0	0	0	1	0	0	0	0	0	0	0	0	0	0	0	1	0	correct	5161	
27	2	IS  (6 : 2) - 2 = 1   ?, point	0	0	0	0	0	0	0	0	0	1	0	0	0	0	0	0	0	0	0	0	0	1	0	correct	2647	
28	1	dummy	travail	
28	1	dummy	point	
29	1	IS  (6 : 2) + 1 = 4   ?, chien	0	0	0	0	0	0	0	0	0	0	1	0	0	0	0	0	0	0	0	0	0	1	0	correct	2791	
29	2	IS  (9 x 1) + 9 = 1   ?, banque	0	0	0	0	0	0	0	0	0	0	1	0	0	0	0	0	0	0	0	0	0	0	1	incorrect	3758	
29	3	IS  (7 : 1) + 2 = 7   ?, moustache	0	0	0	0	0	0	0	0	0	0	1	0	0	0	0	0	0	0	0	0	0	0	1	incorrect	3191	
29	4	IS  (10 : 2) - 4 = 3   ?, voeu	0	0	0	0	0	0	0	0	0	0	1	0	0	0	0	0	0	0	0	0	0	0	1	incorrect	3373	
30	1	dummy	-²chien	
30	1	dummy	banque	
30	1	dummy	moustache	
30	1	dummy	voeu	
31	1	IS  (8 : 4) - 1 = 1   ?, étable	0	0	0	0	0	0	0	0	0	0	0	1	0	0	0	0	0	0	0	0	0	1	0	correct	5225	
31	2	IS  (10 : 1) + 3 = 13   ?, mur	0	0	0	0	0	0	0	0	0	0	0	1	0	0	0	0	0	0	0	0	0	1	0	correct	3297	
31	3	IS  (2 x 1) - 1 = 1   ?, toit	0	0	0	0	0	0	0	0	0	0	0	1	0	0	0	0	0	0	0	0	0	1	0	correct	2607	
32	1	dummy	--étable	
32	1	dummy	mur	
32	1	dummy	toit	
33	1	IS  (10 : 2) + 4 = 8   ?, nappe	0	0	0	0	0	0	0	0	0	0	0	0	1	0	0	0	0	0	0	0	0	0	1	incorrect	3721	
33	2	IS  (7 x 7) + 1 = 49   ?, herbe	0	0	0	0	0	0	0	0	0	0	0	0	1	0	0	0	0	0	0	0	0	0	1	incorrect	2740	
34	1	dummy	²²nappe	
34	1	dummy	herbe	
35	1	IS  (10 x 2) - 6 = 12   ?, femme	0	0	0	0	0	0	0	0	0	0	0	0	0	1	0	0	0	0	0	0	0	0	1	incorrect	3852	
35	2	IS  (6 x 3) - 2 = 11   ?, poupée	0	0	0	0	0	0	0	0	0	0	0	0	0	1	0	0	0	0	0	0	0	0	1	incorrect	1812	
35	3	IS  (5 x 1) - 1 = 5   ?, lettre	0	0	0	0	0	0	0	0	0	0	0	0	0	1	0	0	0	0	0	0	0	0	1	incorrect	2342	
35	4	IS  (6 x 4) + 1 = 25   ?, feuille	0	0	0	0	0	0	0	0	0	0	0	0	0	1	0	0	0	0	0	0	0	1	0	correct	1373	
35	5	IS  (9 x 3) - 3 = 24   ?, peinture	0	0	0	0	0	0	0	0	0	0	0	0	0	1	0	0	0	0	0	0	0	1	0	correct	2168	
35	6	IS  (9 : 1) + 8 = 18   ?, église	0	0	0	0	0	0	0	0	0	0	0	0	0	1	0	0	0	0	0	0	0	0	1	incorrect	3009	
36	1	dummy	²²-²femme	
36	1	dummy	poupée	
36	1	dummy	lettre	
36	1	dummy	feuille	
36	1	dummy	église	
36	1	dummy	église	
37	1	IS  (6 x 3) - 2 = 11   ?, peinture	0	0	0	0	0	0	0	0	0	0	0	0	0	1	0	0	0	0	0	0	0	0	1	incorrect	4973	
37	2	IS  (9 x 3) - 3 = 24   ?, église	0	0	0	0	0	0	0	0	0	0	0	0	0	1	0	0	0	0	0	0	0	1	0	correct	1870	
37	3	IS  (9 : 1) + 8 = 18   ?, femme	0	0	0	0	0	0	0	0	0	0	0	0	0	1	0	0	0	0	0	0	0	0	1	incorrect	1666	
37	4	IS  (6 x 4) + 1 = 25   ?, poupée	0	0	0	0	0	0	0	0	0	0	0	0	0	1	0	0	0	0	0	0	0	1	0	correct	1402	
38	1	dummy	²²-peinture	
38	1	dummy	feuille	
38	1	dummy	église	
38	1	dummy	femme	
