block number	trial number	trial contents	set1	set2	set3	set4	set5	set6	set7	set8	set9	set10	set11	set12	set13	set14	set15	set_Ex1	set_Ex2	set_Ex3	set_Ex4	set_Ex5	set_Ex6	correct_operation	incorrect_operation	response	RT	
1	1	IS  (5 x 1) - 1 = 4   ?, balle	0	0	0	0	0	0	0	0	0	0	0	0	0	0	0	1	0	0	0	0	0	1	0	incorrect	4321	
2	1	IS  (2 x 3) + 1 = 4   ?, bouche	0	0	0	0	0	0	0	0	0	0	0	0	0	0	0	0	1	0	0	0	0	0	1	correct	4614	
3	1	IS  (6 x 3) + 2 = 17   ?, sol	0	0	0	0	0	0	0	0	0	0	0	0	0	0	0	0	0	1	0	0	0	0	1	correct	3256	
4	1	IS  (2 x 2) + 1 = 4   ?, groupe	0	0	0	0	0	0	0	0	0	0	0	0	0	0	0	0	0	0	1	0	0	0	1	correct	2231	
5	1	dummy	sol	
5	1	dummy	groupe	
6	1	IS  (3 : 1) - 2 = 3   ?, prix	0	0	0	0	0	0	0	0	0	0	0	0	0	0	0	0	0	0	0	1	0	0	1	correct	3376	
7	1	IS  (10 : 2) + 4 = 3   ?, pain	0	0	0	0	0	0	0	0	0	0	0	0	0	0	0	0	0	0	0	0	1	0	1	correct	2051	
8	1	dummy	prix	
8	1	dummy	pain	
9	1	IS  (8 : 2) + 4 = 2   ?, bois	1	0	0	0	0	0	0	0	0	0	0	0	0	0	0	0	0	0	0	0	0	0	1	correct	2289	
9	2	IS  (9 x 2) - 3 = 16   ?, argent	1	0	0	0	0	0	0	0	0	0	0	0	0	0	0	0	0	0	0	0	0	0	1	incorrect	2957	
9	3	IS  (5 : 1) + 4 = 9   ?, lait	1	0	0	0	0	0	0	0	0	0	0	0	0	0	0	0	0	0	0	0	0	1	0	incorrect	3363	
10	1	dummy	bois	
10	1	dummy	argent	
10	1	dummy	lait	
11	1	IS  (10 : 10) - 1 = 2   ?, air	0	1	0	0	0	0	0	0	0	0	0	0	0	0	0	0	0	0	0	0	0	0	1	correct	4794	
11	2	IS  (8 x 1) + 5 = 13   ?, mot	0	1	0	0	0	0	0	0	0	0	0	0	0	0	0	0	0	0	0	0	0	1	0	incorrect	3696	
11	3	IS  (8 : 8) + 1 = 2   ?, coffre	0	1	0	0	0	0	0	0	0	0	0	0	0	0	0	0	0	0	0	0	0	1	0	incorrect	2689	
11	4	IS  (8 x 1) + 8 = 16   ?, rêve	0	1	0	0	0	0	0	0	0	0	0	0	0	0	0	0	0	0	0	0	0	1	0	incorrect	4470	
11	5	IS  (9 : 3) - 2 = 1   ?, coeur	0	1	0	0	0	0	0	0	0	0	0	0	0	0	0	0	0	0	0	0	0	1	0	incorrect	3535	
12	1	dummy	air	
12	1	dummy	mot	
12	1	dummy	coffre	
12	1	dummy	coeur	
12	1	dummy	coeur	
13	1	IS  (4 x 4) + 1 = 17   ?, sac	0	0	1	0	0	0	0	0	0	0	0	0	0	0	0	0	0	0	0	0	0	1	0	incorrect	2956	
13	2	IS  (9 : 1) - 7 = 4   ?, fourchette	0	0	1	0	0	0	0	0	0	0	0	0	0	0	0	0	0	0	0	0	0	0	1	correct	5512	
13	3	IS  (6 x 2) - 3 = 10   ?, bicyclette	0	0	1	0	0	0	0	0	0	0	0	0	0	0	0	0	0	0	0	0	0	0	1	correct	3638	
14	1	dummy	sac	
14	1	dummy	fourchette	
14	1	dummy	bicyclette	
15	1	IS  (8 x 4) + 2 = 34   ?, tissu	0	0	0	1	0	0	0	0	0	0	0	0	0	0	0	0	0	0	0	0	0	1	0	correct	4418	
15	2	IS  (3 : 1) + 3 = 6   ?, fête	0	0	0	1	0	0	0	0	0	0	0	0	0	0	0	0	0	0	0	0	0	1	0	incorrect	3821	
16	1	dummy	tissu	
16	1	dummy	fête	
17	1	IS  (4 : 1) - 4 = 2   ?, voie	0	0	0	0	1	0	0	0	0	0	0	0	0	0	0	0	0	0	0	0	0	0	1	correct	4034	
17	2	IS  (4 : 1) + 1 = 4   ?, cri	0	0	0	0	1	0	0	0	0	0	0	0	0	0	0	0	0	0	0	0	0	0	1	correct	2708	
17	3	IS  (7 x 2) - 3 = 11   ?, maison	0	0	0	0	1	0	0	0	0	0	0	0	0	0	0	0	0	0	0	0	0	1	0	incorrect	5375	
17	4	IS  (10 : 1) + 1 = 10   ?, verre	0	0	0	0	1	0	0	0	0	0	0	0	0	0	0	0	0	0	0	0	0	0	1	correct	3793	
17	5	IS  (10 x 2) + 3 = 23   ?, pierre	0	0	0	0	1	0	0	0	0	0	0	0	0	0	0	0	0	0	0	0	0	1	0	incorrect	2964	
18	1	dummy	voie	
18	1	dummy	cri	
18	1	dummy	maison	
18	1	dummy	 	
18	1	dummy	 	
19	1	IS  (5 x 2) + 1 = 6   ?, enfant	0	0	0	0	0	1	0	0	0	0	0	0	0	0	0	0	0	0	0	0	0	0	1	correct	5596	
19	2	IS  (9 x 2) + 1 = 18   ?, escalier	0	0	0	0	0	1	0	0	0	0	0	0	0	0	0	0	0	0	0	0	0	0	1	correct	2343	
19	3	IS  (9 : 1) - 5 = 4   ?, plan	0	0	0	0	0	1	0	0	0	0	0	0	0	0	0	0	0	0	0	0	0	1	0	incorrect	3400	
19	4	IS  (9 x 1) - 1 = 8   ?, tête	0	0	0	0	0	1	0	0	0	0	0	0	0	0	0	0	0	0	0	0	0	1	0	incorrect	5434	
19	5	IS  (3 x 2) + 1 = 6   ?, montre	0	0	0	0	0	1	0	0	0	0	0	0	0	0	0	0	0	0	0	0	0	0	1	correct	1641	
20	1	dummy	enfant	
20	1	dummy	escalier	
20	1	dummy	tête	
20	1	dummy	montre	
20	1	dummy	 	
21	1	IS  (6 x 1) - 4 = 1   ?, sang	0	0	0	0	0	0	1	0	0	0	0	0	0	0	0	0	0	0	0	0	0	0	1	correct	9947	
21	2	IS  (4 x 2) + 1 = 9   ?, bouteille	0	0	0	0	0	0	1	0	0	0	0	0	0	0	0	0	0	0	0	0	0	1	0	incorrect	2172	
21	3	IS  (10 : 2) - 3 = 2   ?, montagne	0	0	0	0	0	0	1	0	0	0	0	0	0	0	0	0	0	0	0	0	0	1	0	incorrect	2531	
21	4	IS  (9 : 3) - 1 = 2   ?, homme	0	0	0	0	0	0	1	0	0	0	0	0	0	0	0	0	0	0	0	0	0	1	0	incorrect	1885	
21	5	IS  (4 : 2) + 1 = 6   ?, chemise	0	0	0	0	0	0	1	0	0	0	0	0	0	0	0	0	0	0	0	0	0	0	1	correct	5132	
21	6	IS  (10 : 2) + 4 = 9   ?, serrure	0	0	0	0	0	0	1	0	0	0	0	0	0	0	0	0	0	0	0	0	0	1	0	incorrect	8339	
22	1	dummy	sang	
22	1	dummy	bouteille	
22	1	dummy	montagne	
22	1	dummy	chemise	
22	1	dummy	chemise	
22	1	dummy	chemise	
23	1	IS  (6 : 3) + 2 = 4   ?, chaise	0	0	0	0	0	0	0	1	0	0	0	0	0	0	0	0	0	0	0	0	0	1	0	correct	11003	
23	2	IS  (8 : 1) - 6 = 4   ?, cheval	0	0	0	0	0	0	0	1	0	0	0	0	0	0	0	0	0	0	0	0	0	0	1	correct	3610	
23	3	IS  (9 x 3) - 2 = 25   ?, film	0	0	0	0	0	0	0	1	0	0	0	0	0	0	0	0	0	0	0	0	0	1	0	correct	5231	
23	4	IS  (9 : 3) - 2 = 2   ?, carte	0	0	0	0	0	0	0	1	0	0	0	0	0	0	0	0	0	0	0	0	0	0	1	correct	8051	
24	1	dummy	chaise	
24	1	dummy	chaise	
24	1	dummy	montagne	
24	1	dummy	 	
25	1	IS  (7 x 2) - 1 = 14   ?, robinet	0	0	0	0	0	0	0	0	1	0	0	0	0	0	0	0	0	0	0	0	0	0	1	correct	3885	
25	2	IS  (3 x 3) - 1 = 8   ?, classe	0	0	0	0	0	0	0	0	1	0	0	0	0	0	0	0	0	0	0	0	0	1	0	incorrect	2159	
25	3	IS  (8 x 4) - 2 = 32   ?, assiette	0	0	0	0	0	0	0	0	1	0	0	0	0	0	0	0	0	0	0	0	0	0	1	correct	4266	
25	4	IS  (3 x 1) + 2 = 2   ?, village	0	0	0	0	0	0	0	0	1	0	0	0	0	0	0	0	0	0	0	0	0	0	1	correct	5185	
25	5	IS  (5 : 5) + 1 = 2   ?, rouleau	0	0	0	0	0	0	0	0	1	0	0	0	0	0	0	0	0	0	0	0	0	1	0	incorrect	6869	
25	6	IS  (6 : 2) - 2 = 2   ?, bouton	0	0	0	0	0	0	0	0	1	0	0	0	0	0	0	0	0	0	0	0	0	0	1	correct	5543	
26	1	dummy	robinet	
26	1	dummy	classe	
26	1	dummy	assiette	
26	1	dummy	 	
26	1	dummy	 	
26	1	dummy	 	
27	1	IS  (6 : 2) - 2 = 1   ?, point	0	0	0	0	0	0	0	0	0	1	0	0	0	0	0	0	0	0	0	0	0	1	0	incorrect	5026	
27	2	IS  (7 x 1) + 6 = 13   ?, travail	0	0	0	0	0	0	0	0	0	1	0	0	0	0	0	0	0	0	0	0	0	1	0	incorrect	5419	
28	1	dummy	point	
28	1	dummy	travail	
29	1	IS  (7 : 1) + 2 = 7   ?, banque	0	0	0	0	0	0	0	0	0	0	1	0	0	0	0	0	0	0	0	0	0	0	1	correct	3228	
29	2	IS  (6 : 2) + 1 = 4   ?, chien	0	0	0	0	0	0	0	0	0	0	1	0	0	0	0	0	0	0	0	0	0	1	0	incorrect	3898	
29	3	IS  (10 : 2) - 4 = 3   ?, moustache	0	0	0	0	0	0	0	0	0	0	1	0	0	0	0	0	0	0	0	0	0	0	1	correct	4549	
29	4	IS  (9 x 1) + 9 = 1   ?, voeu	0	0	0	0	0	0	0	0	0	0	1	0	0	0	0	0	0	0	0	0	0	0	1	correct	2745	
30	1	dummy	banque	
30	1	dummy	chien	
30	1	dummy	moustache	
30	1	dummy	jeux	
31	1	IS  (8 : 4) - 1 = 1   ?, mur	0	0	0	0	0	0	0	0	0	0	0	1	0	0	0	0	0	0	0	0	0	1	0	incorrect	8165	
31	2	IS  (10 : 1) + 3 = 13   ?, toit	0	0	0	0	0	0	0	0	0	0	0	1	0	0	0	0	0	0	0	0	0	1	0	incorrect	5722	
31	3	IS  (2 x 1) - 1 = 1   ?, étable	0	0	0	0	0	0	0	0	0	0	0	1	0	0	0	0	0	0	0	0	0	1	0	incorrect	3602	
32	1	dummy	mur	
32	1	dummy	toit	
32	1	dummy	étable	
33	1	IS  (7 x 7) + 1 = 49   ?, nappe	0	0	0	0	0	0	0	0	0	0	0	0	1	0	0	0	0	0	0	0	0	0	1	correct	4258	
33	2	IS  (10 : 2) + 4 = 8   ?, herbe	0	0	0	0	0	0	0	0	0	0	0	0	1	0	0	0	0	0	0	0	0	0	1	correct	4013	
34	1	dummy	nappe	
34	1	dummy	herbe	
35	1	IS  (9 x 3) - 3 = 24   ?, poupée	0	0	0	0	0	0	0	0	0	0	0	0	0	1	0	0	0	0	0	0	0	1	0	correct	5370	
35	2	IS  (10 x 2) - 6 = 12   ?, peinture	0	0	0	0	0	0	0	0	0	0	0	0	0	1	0	0	0	0	0	0	0	0	1	correct	4175	
35	3	IS  (6 x 4) + 1 = 25   ?, église	0	0	0	0	0	0	0	0	0	0	0	0	0	1	0	0	0	0	0	0	0	1	0	incorrect	2735	
35	4	IS  (5 x 1) - 1 = 5   ?, femme	0	0	0	0	0	0	0	0	0	0	0	0	0	1	0	0	0	0	0	0	0	0	1	correct	5154	
35	5	IS  (9 : 1) + 8 = 18   ?, feuille	0	0	0	0	0	0	0	0	0	0	0	0	0	1	0	0	0	0	0	0	0	0	1	correct	4878	
35	6	IS  (6 x 3) - 2 = 11   ?, lettre	0	0	0	0	0	0	0	0	0	0	0	0	0	1	0	0	0	0	0	0	0	0	1	correct	6569	
36	1	dummy	poupée	
36	1	dummy	peinture	
36	1	dummy	église	
36	1	dummy	femme	
36	1	dummy	feuille	
36	1	dummy	 	
37	1	IS  (10 x 2) - 6 = 12   ?, feuille	0	0	0	0	0	0	0	0	0	0	0	0	0	1	0	0	0	0	0	0	0	0	1	correct	7747	
37	2	IS  (5 x 1) - 1 = 5   ?, poupée	0	0	0	0	0	0	0	0	0	0	0	0	0	1	0	0	0	0	0	0	0	0	1	correct	2710	
37	3	IS  (6 x 4) + 1 = 25   ?, lettre	0	0	0	0	0	0	0	0	0	0	0	0	0	1	0	0	0	0	0	0	0	1	0	incorrect	6012	
37	4	IS  (9 : 1) + 8 = 18   ?, église	0	0	0	0	0	0	0	0	0	0	0	0	0	1	0	0	0	0	0	0	0	0	1	correct	2896	
38	1	dummy	feuille	
38	1	dummy	poupée	
38	1	dummy	lettre	
38	1	dummy	église	
