block number	trial number	trial contents	set1	set2	set3	set4	set5	set6	set7	set8	set9	set10	set11	set12	set13	set14	set15	set_Ex1	set_Ex2	set_Ex3	set_Ex4	set_Ex5	set_Ex6	correct_operation	incorrect_operation	response	RT	
1	1	IS  (5 x 1) - 1 = 4   ?, balle	0	0	0	0	0	0	0	0	0	0	0	0	0	0	0	1	0	0	0	0	0	1	0	incorrect	4486	
2	1	IS  (2 x 3) + 1 = 4   ?, bouche	0	0	0	0	0	0	0	0	0	0	0	0	0	0	0	0	1	0	0	0	0	0	1	correct	4635	
3	1	IS  (6 x 3) + 2 = 17   ?, sol	0	0	0	0	0	0	0	0	0	0	0	0	0	0	0	0	0	1	0	0	0	0	1	correct	3660	
4	1	IS  (2 x 2) + 1 = 4   ?, groupe	0	0	0	0	0	0	0	0	0	0	0	0	0	0	0	0	0	0	1	0	0	0	1	correct	3106	
5	1	dummy	²-	
5	1	dummy	sol	
6	1	IS  (3 : 1) - 2 = 3   ?, prix	0	0	0	0	0	0	0	0	0	0	0	0	0	0	0	0	0	0	0	1	0	0	1	correct	6072	
7	1	IS  (10 : 2) + 4 = 3   ?, pain	0	0	0	0	0	0	0	0	0	0	0	0	0	0	0	0	0	0	0	0	1	0	1	correct	3995	
8	1	dummy	-prix	
8	1	dummy	pain	
9	1	IS  (9 x 2) - 3 = 16   ?, argent	1	0	0	0	0	0	0	0	0	0	0	0	0	0	0	0	0	0	0	0	0	0	1	correct	4218	
9	2	IS  (5 : 1) + 4 = 9   ?, bois	1	0	0	0	0	0	0	0	0	0	0	0	0	0	0	0	0	0	0	0	0	1	0	correct	3674	
9	3	IS  (8 : 2) + 4 = 2   ?, lait	1	0	0	0	0	0	0	0	0	0	0	0	0	0	0	0	0	0	0	0	0	0	1	correct	5284	
10	1	dummy	-argent	
10	1	dummy	bois	
10	1	dummy	lait	
11	1	IS  (10 : 10) - 1 = 2   ?, mot	0	1	0	0	0	0	0	0	0	0	0	0	0	0	0	0	0	0	0	0	0	0	1	correct	3795	
11	2	IS  (9 : 3) - 2 = 1   ?, rêve	0	1	0	0	0	0	0	0	0	0	0	0	0	0	0	0	0	0	0	0	0	1	0	incorrect	4294	
11	3	IS  (8 x 1) + 5 = 13   ?, coffre	0	1	0	0	0	0	0	0	0	0	0	0	0	0	0	0	0	0	0	0	0	1	0	incorrect	4396	
11	4	IS  (8 x 1) + 8 = 16   ?, coeur	0	1	0	0	0	0	0	0	0	0	0	0	0	0	0	0	0	0	0	0	0	1	0	incorrect	4793	
11	5	IS  (8 : 8) + 1 = 2   ?, air	0	1	0	0	0	0	0	0	0	0	0	0	0	0	0	0	0	0	0	0	0	1	0	incorrect	6734	
12	1	dummy	-mot	
12	1	dummy	rêve	
12	1	dummy	coeur	
12	1	dummy	arbre	
12	1	dummy	 	
13	1	IS  (9 : 1) - 7 = 4   ?, bicyclette	0	0	1	0	0	0	0	0	0	0	0	0	0	0	0	0	0	0	0	0	0	0	1	correct	4386	
13	2	IS  (6 x 2) - 3 = 10   ?, sac	0	0	1	0	0	0	0	0	0	0	0	0	0	0	0	0	0	0	0	0	0	0	1	correct	5221	
13	3	IS  (4 x 4) + 1 = 17   ?, fourchette	0	0	1	0	0	0	0	0	0	0	0	0	0	0	0	0	0	0	0	0	0	1	0	incorrect	4126	
14	1	dummy	-bicyclette	
14	1	dummy	 	
14	1	dummy	fourchette	
15	1	IS  (8 x 4) + 2 = 34   ?, tissu	0	0	0	1	0	0	0	0	0	0	0	0	0	0	0	0	0	0	0	0	0	1	0	incorrect	4574	
15	2	IS  (3 : 1) + 3 = 6   ?, fête	0	0	0	1	0	0	0	0	0	0	0	0	0	0	0	0	0	0	0	0	0	1	0	incorrect	6101	
16	1	dummy	tissu	
16	1	dummy	fête	
17	1	IS  (10 x 2) + 3 = 23   ?, maison	0	0	0	0	1	0	0	0	0	0	0	0	0	0	0	0	0	0	0	0	0	1	0	incorrect	2485	
17	2	IS  (4 : 1) - 4 = 2   ?, voie	0	0	0	0	1	0	0	0	0	0	0	0	0	0	0	0	0	0	0	0	0	0	1	correct	4318	
17	3	IS  (10 : 1) + 1 = 10   ?, cri	0	0	0	0	1	0	0	0	0	0	0	0	0	0	0	0	0	0	0	0	0	0	1	correct	6788	
17	4	IS  (4 : 1) + 1 = 4   ?, verre	0	0	0	0	1	0	0	0	0	0	0	0	0	0	0	0	0	0	0	0	0	0	1	correct	3843	
17	5	IS  (7 x 2) - 3 = 11   ?, pierre	0	0	0	0	1	0	0	0	0	0	0	0	0	0	0	0	0	0	0	0	0	1	0	incorrect	6880	
18	1	dummy	²---²maison	
18	1	dummy	bois	
18	1	dummy	cri	
18	1	dummy	verre	
18	1	dummy	 	
19	1	IS  (3 x 2) + 1 = 6   ?, tête	0	0	0	0	0	1	0	0	0	0	0	0	0	0	0	0	0	0	0	0	0	0	1	correct	3607	
19	2	IS  (9 : 1) - 5 = 4   ?, montre	0	0	0	0	0	1	0	0	0	0	0	0	0	0	0	0	0	0	0	0	0	1	0	incorrect	3934	
19	3	IS  (5 x 2) + 1 = 6   ?, enfant	0	0	0	0	0	1	0	0	0	0	0	0	0	0	0	0	0	0	0	0	0	0	1	correct	5927	
19	4	IS  (9 x 2) + 1 = 18   ?, plan	0	0	0	0	0	1	0	0	0	0	0	0	0	0	0	0	0	0	0	0	0	0	1	correct	3319	
19	5	IS  (9 x 1) - 1 = 8   ?, escalier	0	0	0	0	0	1	0	0	0	0	0	0	0	0	0	0	0	0	0	0	0	1	0	incorrect	6531	
20	1	dummy	-²--tête	
20	1	dummy	montre	
20	1	dummy	enfant	
20	1	dummy	plan	
20	1	dummy	escalier	
21	1	IS  (4 x 2) + 1 = 9   ?, sang	0	0	0	0	0	0	1	0	0	0	0	0	0	0	0	0	0	0	0	0	0	1	0	incorrect	2784	
21	2	IS  (10 : 2) - 3 = 2   ?, serrure	0	0	0	0	0	0	1	0	0	0	0	0	0	0	0	0	0	0	0	0	0	1	0	incorrect	3202	
21	3	IS  (10 : 2) + 4 = 9   ?, montagne	0	0	0	0	0	0	1	0	0	0	0	0	0	0	0	0	0	0	0	0	0	1	0	incorrect	6781	
21	4	IS  (9 : 3) - 1 = 2   ?, homme	0	0	0	0	0	0	1	0	0	0	0	0	0	0	0	0	0	0	0	0	0	1	0	incorrect	5017	
21	5	IS  (6 x 1) - 4 = 1   ?, chemise	0	0	0	0	0	0	1	0	0	0	0	0	0	0	0	0	0	0	0	0	0	0	1	correct	4127	
21	6	IS  (4 : 2) + 1 = 6   ?, bouteille	0	0	0	0	0	0	1	0	0	0	0	0	0	0	0	0	0	0	0	0	0	0	1	correct	4759	
22	1	dummy	sang	
22	1	dummy	serrure	
22	1	dummy	montagne	
22	1	dummy	homme	
22	1	dummy	chemise	
22	1	dummy	 	
23	1	IS  (9 : 3) - 2 = 2   ?, chaise	0	0	0	0	0	0	0	1	0	0	0	0	0	0	0	0	0	0	0	0	0	0	1	correct	2953	
23	2	IS  (8 : 1) - 6 = 4   ?, cheval	0	0	0	0	0	0	0	1	0	0	0	0	0	0	0	0	0	0	0	0	0	0	1	correct	2861	
23	3	IS  (6 : 3) + 2 = 4   ?, carte	0	0	0	0	0	0	0	1	0	0	0	0	0	0	0	0	0	0	0	0	0	1	0	incorrect	4072	
23	4	IS  (9 x 3) - 2 = 25   ?, film	0	0	0	0	0	0	0	1	0	0	0	0	0	0	0	0	0	0	0	0	0	1	0	incorrect	11756	
24	1	dummy	-chaise	
24	1	dummy	carte	
24	1	dummy	carte	
24	1	dummy	 	
25	1	IS  (5 : 5) + 1 = 2   ?, village	0	0	0	0	0	0	0	0	1	0	0	0	0	0	0	0	0	0	0	0	0	1	0	incorrect	3375	
25	2	IS  (7 x 2) - 1 = 14   ?, classe	0	0	0	0	0	0	0	0	1	0	0	0	0	0	0	0	0	0	0	0	0	0	1	correct	4286	
25	3	IS  (8 x 4) - 2 = 32   ?, assiette	0	0	0	0	0	0	0	0	1	0	0	0	0	0	0	0	0	0	0	0	0	0	1	correct	6326	
25	4	IS  (3 x 3) - 1 = 8   ?, bouton	0	0	0	0	0	0	0	0	1	0	0	0	0	0	0	0	0	0	0	0	0	1	0	incorrect	4602	
25	5	IS  (6 : 2) - 2 = 2   ?, robinet	0	0	0	0	0	0	0	0	1	0	0	0	0	0	0	0	0	0	0	0	0	0	1	correct	8045	
25	6	IS  (3 x 1) + 2 = 2   ?, rouleau	0	0	0	0	0	0	0	0	1	0	0	0	0	0	0	0	0	0	0	0	0	0	1	correct	8158	
26	1	dummy	-village	
26	1	dummy	classe	
26	1	dummy	assiette	
26	1	dummy	bouton	
26	1	dummy	robinet	
26	1	dummy	 	
27	1	IS  (6 : 2) - 2 = 1   ?, point	0	0	0	0	0	0	0	0	0	1	0	0	0	0	0	0	0	0	0	0	0	1	0	incorrect	4645	
27	2	IS  (7 x 1) + 6 = 13   ?, travail	0	0	0	0	0	0	0	0	0	1	0	0	0	0	0	0	0	0	0	0	0	1	0	incorrect	5465	
28	1	dummy	²point	
28	1	dummy	travail	
29	1	IS  (10 : 2) - 4 = 3   ?, moustache	0	0	0	0	0	0	0	0	0	0	1	0	0	0	0	0	0	0	0	0	0	0	1	correct	8252	
29	2	IS  (6 : 2) + 1 = 4   ?, banque	0	0	0	0	0	0	0	0	0	0	1	0	0	0	0	0	0	0	0	0	0	1	0	incorrect	3389	
29	3	IS  (7 : 1) + 2 = 7   ?, voeu	0	0	0	0	0	0	0	0	0	0	1	0	0	0	0	0	0	0	0	0	0	0	1	correct	3588	
29	4	IS  (9 x 1) + 9 = 1   ?, chien	0	0	0	0	0	0	0	0	0	0	1	0	0	0	0	0	0	0	0	0	0	0	1	correct	5013	
30	1	dummy	--moustache	
30	1	dummy	banque	
30	1	dummy	voeu	
30	1	dummy	chien	
31	1	IS  (8 : 4) - 1 = 1   ?, étable	0	0	0	0	0	0	0	0	0	0	0	1	0	0	0	0	0	0	0	0	0	1	0	incorrect	3134	
31	2	IS  (10 : 1) + 3 = 13   ?, mur	0	0	0	0	0	0	0	0	0	0	0	1	0	0	0	0	0	0	0	0	0	1	0	incorrect	2574	
31	3	IS  (2 x 1) - 1 = 1   ?, toit	0	0	0	0	0	0	0	0	0	0	0	1	0	0	0	0	0	0	0	0	0	1	0	incorrect	3619	
32	1	dummy	étable	
32	1	dummy	mur	
32	1	dummy	toit	
33	1	IS  (10 : 2) + 4 = 8   ?, nappe	0	0	0	0	0	0	0	0	0	0	0	0	1	0	0	0	0	0	0	0	0	0	1	correct	3384	
33	2	IS  (7 x 7) + 1 = 49   ?, herbe	0	0	0	0	0	0	0	0	0	0	0	0	1	0	0	0	0	0	0	0	0	0	1	correct	8197	
34	1	dummy	-nappe	
34	1	dummy	herbe	
35	1	IS  (5 x 1) - 1 = 5   ?, femme	0	0	0	0	0	0	0	0	0	0	0	0	0	1	0	0	0	0	0	0	0	0	1	correct	2985	
35	2	IS  (6 x 4) + 1 = 25   ?, église	0	0	0	0	0	0	0	0	0	0	0	0	0	1	0	0	0	0	0	0	0	1	0	incorrect	4876	
35	3	IS  (9 : 1) + 8 = 18   ?, poupée	0	0	0	0	0	0	0	0	0	0	0	0	0	1	0	0	0	0	0	0	0	0	1	correct	5724	
35	4	IS  (10 x 2) - 6 = 12   ?, feuille	0	0	0	0	0	0	0	0	0	0	0	0	0	1	0	0	0	0	0	0	0	0	1	correct	3830	
35	5	IS  (6 x 3) - 2 = 11   ?, peinture	0	0	0	0	0	0	0	0	0	0	0	0	0	1	0	0	0	0	0	0	0	0	1	correct	6258	
35	6	IS  (9 x 3) - 3 = 24   ?, lettre	0	0	0	0	0	0	0	0	0	0	0	0	0	1	0	0	0	0	0	0	0	1	0	correct	6344	
36	1	dummy	²--femme	
36	1	dummy	église	
36	1	dummy	poupée	
36	1	dummy	feuille	
36	1	dummy	peinture	
36	1	dummy	herbe	
37	1	IS  (6 x 3) - 2 = 11   ?, poupée	0	0	0	0	0	0	0	0	0	0	0	0	0	1	0	0	0	0	0	0	0	0	1	correct	3273	
37	2	IS  (5 x 1) - 1 = 5   ?, église	0	0	0	0	0	0	0	0	0	0	0	0	0	1	0	0	0	0	0	0	0	0	1	correct	2464	
37	3	IS  (6 x 4) + 1 = 25   ?, lettre	0	0	0	0	0	0	0	0	0	0	0	0	0	1	0	0	0	0	0	0	0	1	0	incorrect	3549	
37	4	IS  (9 : 1) + 8 = 18   ?, peinture	0	0	0	0	0	0	0	0	0	0	0	0	0	1	0	0	0	0	0	0	0	0	1	correct	11750	
38	1	dummy	-femme	
38	1	dummy	poupée	
38	1	dummy	église	
38	1	dummy	 	
