block number	trial number	trial contents	set1	set2	set3	set4	set5	set6	set7	set8	set9	set10	set11	set12	set13	set14	set15	set_Ex1	set_Ex2	set_Ex3	set_Ex4	set_Ex5	set_Ex6	correct_operation	incorrect_operation	response	RT	
1	1	IS  (5 x 1) - 1 = 4   ?, balle	0	0	0	0	0	0	0	0	0	0	0	0	0	0	0	1	0	0	0	0	0	1	0	incorrect	11684	
2	1	IS  (2 x 3) + 1 = 4   ?, bouche	0	0	0	0	0	0	0	0	0	0	0	0	0	0	0	0	1	0	0	0	0	0	1	correct	4667	
3	1	IS  (6 x 3) + 2 = 17   ?, sol	0	0	0	0	0	0	0	0	0	0	0	0	0	0	0	0	0	1	0	0	0	0	1	correct	11747	
4	1	IS  (2 x 2) + 1 = 4   ?, groupe	0	0	0	0	0	0	0	0	0	0	0	0	0	0	0	0	0	0	1	0	0	0	1	correct	2207	
5	1	dummy	-sol	
5	1	dummy	groupe	
6	1	IS  (3 : 1) - 2 = 3   ?, prix	0	0	0	0	0	0	0	0	0	0	0	0	0	0	0	0	0	0	0	1	0	0	1	correct	3155	
7	1	IS  (10 : 2) + 4 = 3   ?, pain	0	0	0	0	0	0	0	0	0	0	0	0	0	0	0	0	0	0	0	0	1	0	1	correct	2432	
8	1	dummy	-prix	
8	1	dummy	pain	
9	1	IS  (9 x 2) - 3 = 16   ?, lait	1	0	0	0	0	0	0	0	0	0	0	0	0	0	0	0	0	0	0	0	0	0	1	incorrect	2814	
9	2	IS  (5 : 1) + 4 = 9   ?, bois	1	0	0	0	0	0	0	0	0	0	0	0	0	0	0	0	0	0	0	0	0	1	0	incorrect	2467	
9	3	IS  (8 : 2) + 4 = 2   ?, argent	1	0	0	0	0	0	0	0	0	0	0	0	0	0	0	0	0	0	0	0	0	0	1	correct	2147	
10	1	dummy	lait	
10	1	dummy	bois	
10	1	dummy	argent	
11	1	IS  (8 : 8) + 1 = 2   ?, mot	0	1	0	0	0	0	0	0	0	0	0	0	0	0	0	0	0	0	0	0	0	1	0	incorrect	2802	
11	2	IS  (9 : 3) - 2 = 1   ?, coffre	0	1	0	0	0	0	0	0	0	0	0	0	0	0	0	0	0	0	0	0	0	1	0	incorrect	3076	
11	3	IS  (8 x 1) + 5 = 13   ?, rêve	0	1	0	0	0	0	0	0	0	0	0	0	0	0	0	0	0	0	0	0	0	1	0	incorrect	3729	
11	4	IS  (10 : 10) - 1 = 2   ?, coeur	0	1	0	0	0	0	0	0	0	0	0	0	0	0	0	0	0	0	0	0	0	0	1	correct	4468	
11	5	IS  (8 x 1) + 8 = 16   ?, air	0	1	0	0	0	0	0	0	0	0	0	0	0	0	0	0	0	0	0	0	0	1	0	incorrect	4192	
12	1	dummy	mot	
12	1	dummy	coffre	
12	1	dummy	rêve	
12	1	dummy	coeur	
12	1	dummy	j	
13	1	IS  (6 x 2) - 3 = 10   ?, fourchette	0	0	1	0	0	0	0	0	0	0	0	0	0	0	0	0	0	0	0	0	0	0	1	correct	3035	
13	2	IS  (9 : 1) - 7 = 4   ?, sac	0	0	1	0	0	0	0	0	0	0	0	0	0	0	0	0	0	0	0	0	0	0	1	correct	6130	
13	3	IS  (4 x 4) + 1 = 17   ?, bicyclette	0	0	1	0	0	0	0	0	0	0	0	0	0	0	0	0	0	0	0	0	0	1	0	incorrect	2919	
14	1	dummy	fourchette	
14	1	dummy	sac	
14	1	dummy	bicyclette	
15	1	IS  (3 : 1) + 3 = 6   ?, fête	0	0	0	1	0	0	0	0	0	0	0	0	0	0	0	0	0	0	0	0	0	1	0	incorrect	3130	
15	2	IS  (8 x 4) + 2 = 34   ?, tissu	0	0	0	1	0	0	0	0	0	0	0	0	0	0	0	0	0	0	0	0	0	1	0	incorrect	8488	
16	1	dummy	fête	
16	1	dummy	tissus	
17	1	IS  (10 : 1) + 1 = 10   ?, cri	0	0	0	0	1	0	0	0	0	0	0	0	0	0	0	0	0	0	0	0	0	0	1	incorrect	4710	
17	2	IS  (10 x 2) + 3 = 23   ?, voie	0	0	0	0	1	0	0	0	0	0	0	0	0	0	0	0	0	0	0	0	0	1	0	incorrect	5243	
17	3	IS  (7 x 2) - 3 = 11   ?, maison	0	0	0	0	1	0	0	0	0	0	0	0	0	0	0	0	0	0	0	0	0	1	0	incorrect	7507	
17	4	IS  (4 : 1) + 1 = 4   ?, verre	0	0	0	0	1	0	0	0	0	0	0	0	0	0	0	0	0	0	0	0	0	0	1	correct	7774	
17	5	IS  (4 : 1) - 4 = 2   ?, pierre	0	0	0	0	1	0	0	0	0	0	0	0	0	0	0	0	0	0	0	0	0	0	1	correct	9020	
18	1	dummy	g	
18	1	dummy	bois	
18	1	dummy	fête	
18	1	dummy	e	
18	1	dummy	e	
19	1	IS  (5 x 2) + 1 = 6   ?, plan	0	0	0	0	0	1	0	0	0	0	0	0	0	0	0	0	0	0	0	0	0	0	1	correct	4064	
19	2	IS  (9 x 2) + 1 = 18   ?, montre	0	0	0	0	0	1	0	0	0	0	0	0	0	0	0	0	0	0	0	0	0	0	1	correct	2001	
19	3	IS  (3 x 2) + 1 = 6   ?, enfant	0	0	0	0	0	1	0	0	0	0	0	0	0	0	0	0	0	0	0	0	0	0	1	correct	1953	
19	4	IS  (9 : 1) - 5 = 4   ?, tête	0	0	0	0	0	1	0	0	0	0	0	0	0	0	0	0	0	0	0	0	0	1	0	incorrect	3654	
19	5	IS  (9 x 1) - 1 = 8   ?, escalier	0	0	0	0	0	1	0	0	0	0	0	0	0	0	0	0	0	0	0	0	0	1	0	incorrect	4502	
20	1	dummy	plan	
20	1	dummy	montre	
20	1	dummy	enfant	
20	1	dummy	tête	
20	1	dummy	escalier	
21	1	IS  (10 : 2) + 4 = 9   ?, sang	0	0	0	0	0	0	1	0	0	0	0	0	0	0	0	0	0	0	0	0	0	1	0	incorrect	3164	
21	2	IS  (10 : 2) - 3 = 2   ?, bouteille	0	0	0	0	0	0	1	0	0	0	0	0	0	0	0	0	0	0	0	0	0	1	0	incorrect	5768	
21	3	IS  (9 : 3) - 1 = 2   ?, serrure	0	0	0	0	0	0	1	0	0	0	0	0	0	0	0	0	0	0	0	0	0	1	0	incorrect	3557	
21	4	IS  (4 : 2) + 1 = 6   ?, chemise	0	0	0	0	0	0	1	0	0	0	0	0	0	0	0	0	0	0	0	0	0	0	1	correct	2805	
21	5	IS  (6 x 1) - 4 = 1   ?, montagne	0	0	0	0	0	0	1	0	0	0	0	0	0	0	0	0	0	0	0	0	0	0	1	correct	3926	
21	6	IS  (4 x 2) + 1 = 9   ?, homme	0	0	0	0	0	0	1	0	0	0	0	0	0	0	0	0	0	0	0	0	0	1	0	incorrect	4966	
22	1	dummy	plan	
22	1	dummy	bouteille	
22	1	dummy	serrure	
22	1	dummy	chemise	
22	1	dummy	montagne	
22	1	dummy	e	
23	1	IS  (9 : 3) - 2 = 2   ?, carte	0	0	0	0	0	0	0	1	0	0	0	0	0	0	0	0	0	0	0	0	0	0	1	correct	13674	
23	2	IS  (8 : 1) - 6 = 4   ?, film	0	0	0	0	0	0	0	1	0	0	0	0	0	0	0	0	0	0	0	0	0	0	1	correct	7813	
23	3	IS  (9 x 3) - 2 = 25   ?, cheval	0	0	0	0	0	0	0	1	0	0	0	0	0	0	0	0	0	0	0	0	0	1	0	correct	10262	
23	4	IS  (6 : 3) + 2 = 4   ?, chaise	0	0	0	0	0	0	0	1	0	0	0	0	0	0	0	0	0	0	0	0	0	1	0	incorrect	9268	
24	1	dummy	plan	
24	1	dummy	carte	
24	1	dummy	cheval	
24	1	dummy	d	
25	1	IS  (3 x 3) - 1 = 8   ?, rouleau	0	0	0	0	0	0	0	0	1	0	0	0	0	0	0	0	0	0	0	0	0	1	0	incorrect	4023	
25	2	IS  (6 : 2) - 2 = 2   ?, bouton	0	0	0	0	0	0	0	0	1	0	0	0	0	0	0	0	0	0	0	0	0	0	1	correct	4022	
25	3	IS  (7 x 2) - 1 = 14   ?, classe	0	0	0	0	0	0	0	0	1	0	0	0	0	0	0	0	0	0	0	0	0	0	1	correct	4793	
25	4	IS  (5 : 5) + 1 = 2   ?, village	0	0	0	0	0	0	0	0	1	0	0	0	0	0	0	0	0	0	0	0	0	1	0	incorrect	3133	
25	5	IS  (8 x 4) - 2 = 32   ?, robinet	0	0	0	0	0	0	0	0	1	0	0	0	0	0	0	0	0	0	0	0	0	0	1	correct	9391	
25	6	IS  (3 x 1) + 2 = 2   ?, assiette	0	0	0	0	0	0	0	0	1	0	0	0	0	0	0	0	0	0	0	0	0	0	1	correct	11202	
26	1	dummy	--d	
26	1	dummy	d	
26	1	dummy	village	
26	1	dummy	robinet	
26	1	dummy	assiette	
26	1	dummy	e	
27	1	IS  (6 : 2) - 2 = 1   ?, point	0	0	0	0	0	0	0	0	0	1	0	0	0	0	0	0	0	0	0	0	0	1	0	correct	4754	
27	2	IS  (7 x 1) + 6 = 13   ?, travail	0	0	0	0	0	0	0	0	0	1	0	0	0	0	0	0	0	0	0	0	0	1	0	incorrect	6463	
28	1	dummy	point travail$	
28	1	dummy	travail	
29	1	IS  (6 : 2) + 1 = 4   ?, banque	0	0	0	0	0	0	0	0	0	0	1	0	0	0	0	0	0	0	0	0	0	1	0	incorrect	3373	
29	2	IS  (9 x 1) + 9 = 1   ?, chien	0	0	0	0	0	0	0	0	0	0	1	0	0	0	0	0	0	0	0	0	0	0	1	correct	3679	
29	3	IS  (7 : 1) + 2 = 7   ?, voeu	0	0	0	0	0	0	0	0	0	0	1	0	0	0	0	0	0	0	0	0	0	0	1	correct	3229	
29	4	IS  (10 : 2) - 4 = 3   ?, moustache	0	0	0	0	0	0	0	0	0	0	1	0	0	0	0	0	0	0	0	0	0	0	1	correct	3875	
30	1	dummy	banque 	
30	1	dummy	chien	
30	1	dummy	moustache	
30	1	dummy	e	
31	1	IS  (2 x 1) - 1 = 1   ?, toit	0	0	0	0	0	0	0	0	0	0	0	1	0	0	0	0	0	0	0	0	0	1	0	incorrect	6724	
31	2	IS  (10 : 1) + 3 = 13   ?, mur	0	0	0	0	0	0	0	0	0	0	0	1	0	0	0	0	0	0	0	0	0	1	0	correct	4260	
31	3	IS  (8 : 4) - 1 = 1   ?, étable	0	0	0	0	0	0	0	0	0	0	0	1	0	0	0	0	0	0	0	0	0	1	0	incorrect	3667	
32	1	dummy	toit	
32	1	dummy	mur	
32	1	dummy	étable	
33	1	IS  (10 : 2) + 4 = 8   ?, herbe	0	0	0	0	0	0	0	0	0	0	0	0	1	0	0	0	0	0	0	0	0	0	1	correct	2548	
33	2	IS  (7 x 7) + 1 = 49   ?, nappe	0	0	0	0	0	0	0	0	0	0	0	0	1	0	0	0	0	0	0	0	0	0	1	correct	5076	
34	1	dummy	étable	
34	1	dummy	nappe	
35	1	IS  (6 x 3) - 2 = 11   ?, lettre	0	0	0	0	0	0	0	0	0	0	0	0	0	1	0	0	0	0	0	0	0	0	1	correct	8105	
35	2	IS  (9 : 1) + 8 = 18   ?, église	0	0	0	0	0	0	0	0	0	0	0	0	0	1	0	0	0	0	0	0	0	0	1	correct	3865	
35	3	IS  (10 x 2) - 6 = 12   ?, poupée	0	0	0	0	0	0	0	0	0	0	0	0	0	1	0	0	0	0	0	0	0	0	1	correct	2885	
35	4	IS  (6 x 4) + 1 = 25   ?, feuille	0	0	0	0	0	0	0	0	0	0	0	0	0	1	0	0	0	0	0	0	0	1	0	incorrect	5237	
35	5	IS  (5 x 1) - 1 = 5   ?, peinture	0	0	0	0	0	0	0	0	0	0	0	0	0	1	0	0	0	0	0	0	0	0	1	correct	2681	
35	6	IS  (9 x 3) - 3 = 24   ?, femme	0	0	0	0	0	0	0	0	0	0	0	0	0	1	0	0	0	0	0	0	0	1	0	incorrect	4218	
36	1	dummy	lettre	
36	1	dummy	église	
36	1	dummy	poupée	
36	1	dummy	feuille	
36	1	dummy	peinture	
36	1	dummy	e	
37	1	IS  (5 x 1) - 1 = 5   ?, poupée	0	0	0	0	0	0	0	0	0	0	0	0	0	1	0	0	0	0	0	0	0	0	1	correct	4485	
37	2	IS  (9 x 3) - 3 = 24   ?, peinture	0	0	0	0	0	0	0	0	0	0	0	0	0	1	0	0	0	0	0	0	0	1	0	incorrect	2974	
37	3	IS  (6 x 4) + 1 = 25   ?, lettre	0	0	0	0	0	0	0	0	0	0	0	0	0	1	0	0	0	0	0	0	0	1	0	incorrect	4237	
37	4	IS  (9 : 1) + 8 = 18   ?, femme	0	0	0	0	0	0	0	0	0	0	0	0	0	1	0	0	0	0	0	0	0	0	1	correct	2751	
38	1	dummy	poupée	
38	1	dummy	peinture	
38	1	dummy	lettre	
38	1	dummy	femme	
