block number	trial number	trial contents	set1	set2	set3	set4	set5	set6	set7	set8	set9	set10	set11	set12	set13	set14	set15	set_Ex1	set_Ex2	set_Ex3	set_Ex4	set_Ex5	set_Ex6	correct_operation	incorrect_operation	response	RT	
1	1	IS  (5 x 1) - 1 = 4   ?, balle	0	0	0	0	0	0	0	0	0	0	0	0	0	0	0	1	0	0	0	0	0	1	0	correct	4882	
2	1	IS  (2 x 3) + 1 = 4   ?, bouche	0	0	0	0	0	0	0	0	0	0	0	0	0	0	0	0	1	0	0	0	0	0	1	incorrect	7327	
3	1	IS  (6 x 3) + 2 = 17   ?, sol	0	0	0	0	0	0	0	0	0	0	0	0	0	0	0	0	0	1	0	0	0	0	1	incorrect	9218	
4	1	IS  (2 x 2) + 1 = 4   ?, groupe	0	0	0	0	0	0	0	0	0	0	0	0	0	0	0	0	0	0	1	0	0	0	1	incorrect	3890	
5	1	dummy	-balle	
5	1	dummy	bouche	
6	1	IS  (3 : 1) - 2 = 3   ?, prix	0	0	0	0	0	0	0	0	0	0	0	0	0	0	0	0	0	0	0	1	0	0	1	incorrect	7334	
7	1	IS  (10 : 2) + 4 = 3   ?, pain	0	0	0	0	0	0	0	0	0	0	0	0	0	0	0	0	0	0	0	0	1	0	1	incorrect	4019	
8	1	dummy	²	
8	1	dummy	pain	
9	1	IS  (8 : 2) + 4 = 2   ?, lait	1	0	0	0	0	0	0	0	0	0	0	0	0	0	0	0	0	0	0	0	0	0	1	incorrect	4519	
9	2	IS  (5 : 1) + 4 = 9   ?, bois	1	0	0	0	0	0	0	0	0	0	0	0	0	0	0	0	0	0	0	0	0	1	0	correct	7214	
9	3	IS  (9 x 2) - 3 = 16   ?, argent	1	0	0	0	0	0	0	0	0	0	0	0	0	0	0	0	0	0	0	0	0	0	1	incorrect	10164	
10	1	dummy	-lait	
10	1	dummy	argent	
10	1	dummy	bois	
11	1	IS  (9 : 3) - 2 = 1   ?, coffre	0	1	0	0	0	0	0	0	0	0	0	0	0	0	0	0	0	0	0	0	0	1	0	correct	6000	
11	2	IS  (8 x 1) + 5 = 13   ?, rêve	0	1	0	0	0	0	0	0	0	0	0	0	0	0	0	0	0	0	0	0	0	1	0	correct	5702	
11	3	IS  (10 : 10) - 1 = 2   ?, air	0	1	0	0	0	0	0	0	0	0	0	0	0	0	0	0	0	0	0	0	0	0	1	incorrect	5485	
11	4	IS  (8 : 8) + 1 = 2   ?, coeur	0	1	0	0	0	0	0	0	0	0	0	0	0	0	0	0	0	0	0	0	0	1	0	correct	7770	
11	5	IS  (8 x 1) + 8 = 16   ?, mot	0	1	0	0	0	0	0	0	0	0	0	0	0	0	0	0	0	0	0	0	0	1	0	correct	6539	
12	1	dummy	-²-coffre	
12	1	dummy	coeur	
12	1	dummy	laid	
12	1	dummy	 	
12	1	dummy	bois	
13	1	IS  (9 : 1) - 7 = 4   ?, sac	0	0	1	0	0	0	0	0	0	0	0	0	0	0	0	0	0	0	0	0	0	0	1	incorrect	10478	
13	2	IS  (6 x 2) - 3 = 10   ?, bicyclette	0	0	1	0	0	0	0	0	0	0	0	0	0	0	0	0	0	0	0	0	0	0	1	incorrect	12557	
13	3	IS  (4 x 4) + 1 = 17   ?, fourchette	0	0	1	0	0	0	0	0	0	0	0	0	0	0	0	0	0	0	0	0	0	1	0	incorrect	7445	
14	1	dummy	²²sac	
14	1	dummy	bicyclette	
14	1	dummy	fourchette	
15	1	IS  (8 x 4) + 2 = 34   ?, tissu	0	0	0	1	0	0	0	0	0	0	0	0	0	0	0	0	0	0	0	0	0	1	0	correct	11168	
15	2	IS  (3 : 1) + 3 = 6   ?, fête	0	0	0	1	0	0	0	0	0	0	0	0	0	0	0	0	0	0	0	0	0	1	0	correct	4185	
16	1	dummy	-tissu	
16	1	dummy	fete	
17	1	IS  (7 x 2) - 3 = 11   ?, verre	0	0	0	0	1	0	0	0	0	0	0	0	0	0	0	0	0	0	0	0	0	1	0	correct	6279	
17	2	IS  (4 : 1) - 4 = 2   ?, maison	0	0	0	0	1	0	0	0	0	0	0	0	0	0	0	0	0	0	0	0	0	0	1	incorrect	7188	
17	3	IS  (10 x 2) + 3 = 23   ?, cri	0	0	0	0	1	0	0	0	0	0	0	0	0	0	0	0	0	0	0	0	0	1	0	correct	9199	
17	4	IS  (10 : 1) + 1 = 10   ?, voie	0	0	0	0	1	0	0	0	0	0	0	0	0	0	0	0	0	0	0	0	0	0	1	incorrect	6613	
17	5	IS  (4 : 1) + 1 = 4   ?, pierre	0	0	0	0	1	0	0	0	0	0	0	0	0	0	0	0	0	0	0	0	0	0	1	incorrect	8588	
18	1	dummy	-verre	
18	1	dummy	maison 	
18	1	dummy	cri	
18	1	dummy	voie	
18	1	dummy	pierre	
19	1	IS  (9 x 1) - 1 = 8   ?, tête	0	0	0	0	0	1	0	0	0	0	0	0	0	0	0	0	0	0	0	0	0	1	0	correct	5000	
19	2	IS  (9 x 2) + 1 = 18   ?, montre	0	0	0	0	0	1	0	0	0	0	0	0	0	0	0	0	0	0	0	0	0	0	1	incorrect	3976	
19	3	IS  (9 : 1) - 5 = 4   ?, escalier	0	0	0	0	0	1	0	0	0	0	0	0	0	0	0	0	0	0	0	0	0	1	0	correct	4675	
19	4	IS  (3 x 2) + 1 = 6   ?, enfant	0	0	0	0	0	1	0	0	0	0	0	0	0	0	0	0	0	0	0	0	0	0	1	incorrect	8408	
19	5	IS  (5 x 2) + 1 = 6   ?, plan	0	0	0	0	0	1	0	0	0	0	0	0	0	0	0	0	0	0	0	0	0	0	1	incorrect	7789	
20	1	dummy	-²²tete	
20	1	dummy	montre	
20	1	dummy	escalier	
20	1	dummy	enfant	
20	1	dummy	plan	
21	1	IS  (10 : 2) + 4 = 9   ?, bouteille	0	0	0	0	0	0	1	0	0	0	0	0	0	0	0	0	0	0	0	0	0	1	0	correct	4985	
21	2	IS  (10 : 2) - 3 = 2   ?, serrure	0	0	0	0	0	0	1	0	0	0	0	0	0	0	0	0	0	0	0	0	0	1	0	correct	6307	
21	3	IS  (6 x 1) - 4 = 1   ?, montagne	0	0	0	0	0	0	1	0	0	0	0	0	0	0	0	0	0	0	0	0	0	0	1	incorrect	7159	
21	4	IS  (9 : 3) - 1 = 2   ?, sang	0	0	0	0	0	0	1	0	0	0	0	0	0	0	0	0	0	0	0	0	0	1	0	correct	6963	
21	5	IS  (4 : 2) + 1 = 6   ?, chemise	0	0	0	0	0	0	1	0	0	0	0	0	0	0	0	0	0	0	0	0	0	0	1	incorrect	7582	
21	6	IS  (4 x 2) + 1 = 9   ?, homme	0	0	0	0	0	0	1	0	0	0	0	0	0	0	0	0	0	0	0	0	0	1	0	correct	16369	
22	1	dummy	--bouteille	
22	1	dummy	serrure	
22	1	dummy	montagne	
22	1	dummy	champ	
22	1	dummy	homme	
22	1	dummy	enfant	
23	1	IS  (6 : 3) + 2 = 4   ?, film	0	0	0	0	0	0	0	1	0	0	0	0	0	0	0	0	0	0	0	0	0	1	0	correct	8821	
23	2	IS  (9 x 3) - 2 = 25   ?, carte	0	0	0	0	0	0	0	1	0	0	0	0	0	0	0	0	0	0	0	0	0	1	0	correct	5366	
23	3	IS  (8 : 1) - 6 = 4   ?, chaise	0	0	0	0	0	0	0	1	0	0	0	0	0	0	0	0	0	0	0	0	0	0	1	incorrect	10715	
23	4	IS  (9 : 3) - 2 = 2   ?, cheval	0	0	0	0	0	0	0	1	0	0	0	0	0	0	0	0	0	0	0	0	0	0	1	incorrect	6030	
24	1	dummy	-²film	
24	1	dummy	carte	
24	1	dummy	cheval	
24	1	dummy	carte	
25	1	IS  (5 : 5) + 1 = 2   ?, village	0	0	0	0	0	0	0	0	1	0	0	0	0	0	0	0	0	0	0	0	0	1	0	correct	4965	
25	2	IS  (3 x 3) - 1 = 8   ?, rouleau	0	0	0	0	0	0	0	0	1	0	0	0	0	0	0	0	0	0	0	0	0	1	0	correct	3475	
25	3	IS  (7 x 2) - 1 = 14   ?, robinet	0	0	0	0	0	0	0	0	1	0	0	0	0	0	0	0	0	0	0	0	0	0	1	incorrect	3433	
25	4	IS  (3 x 1) + 2 = 2   ?, classe	0	0	0	0	0	0	0	0	1	0	0	0	0	0	0	0	0	0	0	0	0	0	1	incorrect	10013	
25	5	IS  (6 : 2) - 2 = 2   ?, bouton	0	0	0	0	0	0	0	0	1	0	0	0	0	0	0	0	0	0	0	0	0	0	1	incorrect	11486	
25	6	IS  (8 x 4) - 2 = 32   ?, assiette	0	0	0	0	0	0	0	0	1	0	0	0	0	0	0	0	0	0	0	0	0	0	1	incorrect	27886	
26	1	dummy	-²²²village	
26	1	dummy	rouleau	
26	1	dummy	robinet 	
26	1	dummy	classe	
26	1	dummy	assiette	
26	1	dummy	tasse	
27	1	IS  (6 : 2) - 2 = 1   ?, point	0	0	0	0	0	0	0	0	0	1	0	0	0	0	0	0	0	0	0	0	0	1	0	correct	8019	
27	2	IS  (7 x 1) + 6 = 13   ?, travail	0	0	0	0	0	0	0	0	0	1	0	0	0	0	0	0	0	0	0	0	0	1	0	correct	11121	
28	1	dummy	-point	
28	1	dummy	travail	
29	1	IS  (9 x 1) + 9 = 1   ?, voeu	0	0	0	0	0	0	0	0	0	0	1	0	0	0	0	0	0	0	0	0	0	0	1	incorrect	4126	
29	2	IS  (7 : 1) + 2 = 7   ?, banque	0	0	0	0	0	0	0	0	0	0	1	0	0	0	0	0	0	0	0	0	0	0	1	incorrect	9673	
29	3	IS  (10 : 2) - 4 = 3   ?, moustache	0	0	0	0	0	0	0	0	0	0	1	0	0	0	0	0	0	0	0	0	0	0	1	incorrect	11315	
29	4	IS  (6 : 2) + 1 = 4   ?, chien	0	0	0	0	0	0	0	0	0	0	1	0	0	0	0	0	0	0	0	0	0	1	0	correct	7687	
30	1	dummy	²²voeu	
30	1	dummy	banque	
30	1	dummy	moustache	
30	1	dummy	 	
31	1	IS  (2 x 1) - 1 = 1   ?, mur	0	0	0	0	0	0	0	0	0	0	0	1	0	0	0	0	0	0	0	0	0	1	0	correct	7287	
31	2	IS  (8 : 4) - 1 = 1   ?, étable	0	0	0	0	0	0	0	0	0	0	0	1	0	0	0	0	0	0	0	0	0	1	0	incorrect	4514	
31	3	IS  (10 : 1) + 3 = 13   ?, toit	0	0	0	0	0	0	0	0	0	0	0	1	0	0	0	0	0	0	0	0	0	1	0	incorrect	5455	
32	1	dummy	-²mur	
32	1	dummy	etable	
32	1	dummy	toit	
33	1	IS  (7 x 7) + 1 = 49   ?, herbe	0	0	0	0	0	0	0	0	0	0	0	0	1	0	0	0	0	0	0	0	0	0	1	incorrect	5184	
33	2	IS  (10 : 2) + 4 = 8   ?, nappe	0	0	0	0	0	0	0	0	0	0	0	0	1	0	0	0	0	0	0	0	0	0	1	incorrect	6844	
34	1	dummy	²²herbe	
34	1	dummy	nappe	
35	1	IS  (10 x 2) - 6 = 12   ?, feuille	0	0	0	0	0	0	0	0	0	0	0	0	0	1	0	0	0	0	0	0	0	0	1	incorrect	7905	
35	2	IS  (6 x 3) - 2 = 11   ?, lettre	0	0	0	0	0	0	0	0	0	0	0	0	0	1	0	0	0	0	0	0	0	0	1	incorrect	7447	
35	3	IS  (5 x 1) - 1 = 5   ?, poupée	0	0	0	0	0	0	0	0	0	0	0	0	0	1	0	0	0	0	0	0	0	0	1	incorrect	9972	
35	4	IS  (9 x 3) - 3 = 24   ?, peinture	0	0	0	0	0	0	0	0	0	0	0	0	0	1	0	0	0	0	0	0	0	1	0	correct	6817	
35	5	IS  (6 x 4) + 1 = 25   ?, église	0	0	0	0	0	0	0	0	0	0	0	0	0	1	0	0	0	0	0	0	0	1	0	correct	7782	
35	6	IS  (9 : 1) + 8 = 18   ?, femme	0	0	0	0	0	0	0	0	0	0	0	0	0	1	0	0	0	0	0	0	0	0	1	incorrect	20434	
36	1	dummy	²²feuille	
36	1	dummy	lettre	
36	1	dummy	poupee	
36	1	dummy	peinture	
36	1	dummy	eglise	
36	1	dummy	femme	
37	1	IS  (9 : 1) + 8 = 18   ?, feuille	0	0	0	0	0	0	0	0	0	0	0	0	0	1	0	0	0	0	0	0	0	0	1	incorrect	5723	
37	2	IS  (6 x 3) - 2 = 11   ?, femme	0	0	0	0	0	0	0	0	0	0	0	0	0	1	0	0	0	0	0	0	0	0	1	incorrect	6692	
37	3	IS  (10 x 2) - 6 = 12   ?, église	0	0	0	0	0	0	0	0	0	0	0	0	0	1	0	0	0	0	0	0	0	0	1	incorrect	12151	
37	4	IS  (5 x 1) - 1 = 5   ?, peinture	0	0	0	0	0	0	0	0	0	0	0	0	0	1	0	0	0	0	0	0	0	0	1	incorrect	7606	
38	1	dummy	²²²feuille	
38	1	dummy	femme	
38	1	dummy	eglise	
38	1	dummy	peinture	
