block number	trial number	trial contents	set1	set2	set3	set4	set5	set6	set7	set8	set9	set10	set11	set12	set13	set14	set15	set_Ex1	set_Ex2	set_Ex3	set_Ex4	set_Ex5	set_Ex6	correct_operation	incorrect_operation	response	RT	
1	1	IS  (5 x 1) - 1 = 4   ?, balle	0	0	0	0	0	0	0	0	0	0	0	0	0	0	0	1	0	0	0	0	0	1	0	correct	8030	
2	1	IS  (2 x 3) + 1 = 4   ?, bouche	0	0	0	0	0	0	0	0	0	0	0	0	0	0	0	0	1	0	0	0	0	0	1	incorrect	7375	
3	1	IS  (6 x 3) + 2 = 17   ?, sol	0	0	0	0	0	0	0	0	0	0	0	0	0	0	0	0	0	1	0	0	0	0	1	incorrect	7865	
4	1	IS  (2 x 2) + 1 = 4   ?, groupe	0	0	0	0	0	0	0	0	0	0	0	0	0	0	0	0	0	0	1	0	0	0	1	incorrect	4116	
5	1	dummy	sol	
5	1	dummy	boule	
6	1	IS  (3 : 1) - 2 = 3   ?, prix	0	0	0	0	0	0	0	0	0	0	0	0	0	0	0	0	0	0	0	1	0	0	1	incorrect	6300	
7	1	IS  (10 : 2) + 4 = 3   ?, pain	0	0	0	0	0	0	0	0	0	0	0	0	0	0	0	0	0	0	0	0	1	0	1	incorrect	7293	
8	1	dummy	prix	
8	1	dummy	pain	
9	1	IS  (5 : 1) + 4 = 9   ?, lait	1	0	0	0	0	0	0	0	0	0	0	0	0	0	0	0	0	0	0	0	0	1	0	correct	4810	
9	2	IS  (8 : 2) + 4 = 2   ?, bois	1	0	0	0	0	0	0	0	0	0	0	0	0	0	0	0	0	0	0	0	0	0	1	incorrect	3887	
9	3	IS  (9 x 2) - 3 = 16   ?, argent	1	0	0	0	0	0	0	0	0	0	0	0	0	0	0	0	0	0	0	0	0	0	1	incorrect	5230	
10	1	dummy	lait	
10	1	dummy	boire	
10	1	dummy	argent	
11	1	IS  (8 x 1) + 5 = 13   ?, mot	0	1	0	0	0	0	0	0	0	0	0	0	0	0	0	0	0	0	0	0	0	1	0	incorrect	5175	
11	2	IS  (8 : 8) + 1 = 2   ?, air	0	1	0	0	0	0	0	0	0	0	0	0	0	0	0	0	0	0	0	0	0	1	0	correct	3081	
11	3	IS  (8 x 1) + 8 = 16   ?, rêve	0	1	0	0	0	0	0	0	0	0	0	0	0	0	0	0	0	0	0	0	0	1	0	correct	7464	
11	4	IS  (9 : 3) - 2 = 1   ?, coeur	0	1	0	0	0	0	0	0	0	0	0	0	0	0	0	0	0	0	0	0	0	1	0	incorrect	11056	
11	5	IS  (10 : 10) - 1 = 2   ?, coffre	0	1	0	0	0	0	0	0	0	0	0	0	0	0	0	0	0	0	0	0	0	0	1	incorrect	13884	
12	1	dummy	mot	
12	1	dummy	cours	
12	1	dummy	coeur	
12	1	dummy	reve	
12	1	dummy	cours	
13	1	IS  (9 : 1) - 7 = 4   ?, sac	0	0	1	0	0	0	0	0	0	0	0	0	0	0	0	0	0	0	0	0	0	0	1	incorrect	10065	
13	2	IS  (4 x 4) + 1 = 17   ?, fourchette	0	0	1	0	0	0	0	0	0	0	0	0	0	0	0	0	0	0	0	0	0	1	0	correct	6941	
13	3	IS  (6 x 2) - 3 = 10   ?, bicyclette	0	0	1	0	0	0	0	0	0	0	0	0	0	0	0	0	0	0	0	0	0	0	1	incorrect	9753	
14	1	dummy	sac	
14	1	dummy	fourchette	
14	1	dummy	bicyclette	
15	1	IS  (3 : 1) + 3 = 6   ?, fête	0	0	0	1	0	0	0	0	0	0	0	0	0	0	0	0	0	0	0	0	0	1	0	correct	3222	
15	2	IS  (8 x 4) + 2 = 34   ?, tissu	0	0	0	1	0	0	0	0	0	0	0	0	0	0	0	0	0	0	0	0	0	1	0	correct	10211	
16	1	dummy	fete	
16	1	dummy	tissu	
17	1	IS  (10 x 2) + 3 = 23   ?, voie	0	0	0	0	1	0	0	0	0	0	0	0	0	0	0	0	0	0	0	0	0	1	0	correct	3230	
17	2	IS  (4 : 1) - 4 = 2   ?, cri	0	0	0	0	1	0	0	0	0	0	0	0	0	0	0	0	0	0	0	0	0	0	1	incorrect	4251	
17	3	IS  (10 : 1) + 1 = 10   ?, maison	0	0	0	0	1	0	0	0	0	0	0	0	0	0	0	0	0	0	0	0	0	0	1	incorrect	6078	
17	4	IS  (4 : 1) + 1 = 4   ?, verre	0	0	0	0	1	0	0	0	0	0	0	0	0	0	0	0	0	0	0	0	0	0	1	incorrect	5641	
17	5	IS  (7 x 2) - 3 = 11   ?, pierre	0	0	0	0	1	0	0	0	0	0	0	0	0	0	0	0	0	0	0	0	0	1	0	correct	27337	
18	1	dummy	voie	
18	1	dummy	cri	
18	1	dummy	maison	
18	1	dummy	pierre	
18	1	dummy	pierre	
19	1	IS  (9 x 2) + 1 = 18   ?, enfant	0	0	0	0	0	1	0	0	0	0	0	0	0	0	0	0	0	0	0	0	0	0	1	incorrect	3668	
19	2	IS  (5 x 2) + 1 = 6   ?, montre	0	0	0	0	0	1	0	0	0	0	0	0	0	0	0	0	0	0	0	0	0	0	1	incorrect	3840	
19	3	IS  (3 x 2) + 1 = 6   ?, tête	0	0	0	0	0	1	0	0	0	0	0	0	0	0	0	0	0	0	0	0	0	0	1	incorrect	3996	
19	4	IS  (9 x 1) - 1 = 8   ?, escalier	0	0	0	0	0	1	0	0	0	0	0	0	0	0	0	0	0	0	0	0	0	1	0	correct	7703	
19	5	IS  (9 : 1) - 5 = 4   ?, plan	0	0	0	0	0	1	0	0	0	0	0	0	0	0	0	0	0	0	0	0	0	1	0	correct	11787	
20	1	dummy	enfant	
20	1	dummy	montre	
20	1	dummy	tete	
20	1	dummy	escalier	
20	1	dummy	escalier	
21	1	IS  (9 : 3) - 1 = 2   ?, serrure	0	0	0	0	0	0	1	0	0	0	0	0	0	0	0	0	0	0	0	0	0	1	0	correct	12666	
21	2	IS  (6 x 1) - 4 = 1   ?, montagne	0	0	0	0	0	0	1	0	0	0	0	0	0	0	0	0	0	0	0	0	0	0	1	incorrect	8101	
21	3	IS  (4 x 2) + 1 = 9   ?, sang	0	0	0	0	0	0	1	0	0	0	0	0	0	0	0	0	0	0	0	0	0	1	0	correct	7476	
21	4	IS  (10 : 2) + 4 = 9   ?, bouteille	0	0	0	0	0	0	1	0	0	0	0	0	0	0	0	0	0	0	0	0	0	1	0	correct	7793	
21	5	IS  (4 : 2) + 1 = 6   ?, chemise	0	0	0	0	0	0	1	0	0	0	0	0	0	0	0	0	0	0	0	0	0	0	1	incorrect	10867	
21	6	IS  (10 : 2) - 3 = 2   ?, homme	0	0	0	0	0	0	1	0	0	0	0	0	0	0	0	0	0	0	0	0	0	1	0	correct	12639	
22	1	dummy	serrure	
22	1	dummy	montagne	
22	1	dummy	sang	
22	1	dummy	bouteille	
22	1	dummy	chemise	
22	1	dummy	homme	
23	1	IS  (8 : 1) - 6 = 4   ?, chaise	0	0	0	0	0	0	0	1	0	0	0	0	0	0	0	0	0	0	0	0	0	0	1	incorrect	7456	
23	2	IS  (9 x 3) - 2 = 25   ?, film	0	0	0	0	0	0	0	1	0	0	0	0	0	0	0	0	0	0	0	0	0	1	0	incorrect	12143	
23	3	IS  (6 : 3) + 2 = 4   ?, cheval	0	0	0	0	0	0	0	1	0	0	0	0	0	0	0	0	0	0	0	0	0	1	0	correct	7454	
23	4	IS  (9 : 3) - 2 = 2   ?, carte	0	0	0	0	0	0	0	1	0	0	0	0	0	0	0	0	0	0	0	0	0	0	1	incorrect	18270	
24	1	dummy	chaise	
24	1	dummy	film	
24	1	dummy	cheval	
24	1	dummy	chemise	
25	1	IS  (5 : 5) + 1 = 2   ?, classe	0	0	0	0	0	0	0	0	1	0	0	0	0	0	0	0	0	0	0	0	0	1	0	correct	2860	
25	2	IS  (8 x 4) - 2 = 32   ?, robinet	0	0	0	0	0	0	0	0	1	0	0	0	0	0	0	0	0	0	0	0	0	0	1	incorrect	13524	
25	3	IS  (3 x 3) - 1 = 8   ?, assiette	0	0	0	0	0	0	0	0	1	0	0	0	0	0	0	0	0	0	0	0	0	1	0	correct	9267	
25	4	IS  (7 x 2) - 1 = 14   ?, rouleau	0	0	0	0	0	0	0	0	1	0	0	0	0	0	0	0	0	0	0	0	0	0	1	incorrect	9511	
25	5	IS  (3 x 1) + 2 = 2   ?, village	0	0	0	0	0	0	0	0	1	0	0	0	0	0	0	0	0	0	0	0	0	0	1	incorrect	12362	
25	6	IS  (6 : 2) - 2 = 2   ?, bouton	0	0	0	0	0	0	0	0	1	0	0	0	0	0	0	0	0	0	0	0	0	0	1	incorrect	19695	
26	1	dummy	classe	
26	1	dummy	robinet	
26	1	dummy	assiette	
26	1	dummy	village	
26	1	dummy	rouleau	
26	1	dummy	robinet	
27	1	IS  (6 : 2) - 2 = 1   ?, point	0	0	0	0	0	0	0	0	0	1	0	0	0	0	0	0	0	0	0	0	0	1	0	incorrect	10995	
27	2	IS  (7 x 1) + 6 = 13   ?, travail	0	0	0	0	0	0	0	0	0	1	0	0	0	0	0	0	0	0	0	0	0	1	0	correct	10804	
28	1	dummy	point	
28	1	dummy	travail	
29	1	IS  (10 : 2) - 4 = 3   ?, chien	0	0	0	0	0	0	0	0	0	0	1	0	0	0	0	0	0	0	0	0	0	0	1	incorrect	7267	
29	2	IS  (9 x 1) + 9 = 1   ?, moustache	0	0	0	0	0	0	0	0	0	0	1	0	0	0	0	0	0	0	0	0	0	0	1	incorrect	3121	
29	3	IS  (6 : 2) + 1 = 4   ?, voeu	0	0	0	0	0	0	0	0	0	0	1	0	0	0	0	0	0	0	0	0	0	1	0	correct	8329	
29	4	IS  (7 : 1) + 2 = 7   ?, banque	0	0	0	0	0	0	0	0	0	0	1	0	0	0	0	0	0	0	0	0	0	0	1	incorrect	5061	
30	1	dummy	chien	
30	1	dummy	moustache	
30	1	dummy	voeu	
30	1	dummy	banque	
31	1	IS  (10 : 1) + 3 = 13   ?, toit	0	0	0	0	0	0	0	0	0	0	0	1	0	0	0	0	0	0	0	0	0	1	0	correct	3993	
31	2	IS  (8 : 4) - 1 = 1   ?, mur	0	0	0	0	0	0	0	0	0	0	0	1	0	0	0	0	0	0	0	0	0	1	0	correct	8524	
31	3	IS  (2 x 1) - 1 = 1   ?, étable	0	0	0	0	0	0	0	0	0	0	0	1	0	0	0	0	0	0	0	0	0	1	0	correct	6714	
32	1	dummy	toit	
32	1	dummy	mur	
32	1	dummy	étable	
33	1	IS  (7 x 7) + 1 = 49   ?, nappe	0	0	0	0	0	0	0	0	0	0	0	0	1	0	0	0	0	0	0	0	0	0	1	incorrect	40288	
33	2	IS  (10 : 2) + 4 = 8   ?, herbe	0	0	0	0	0	0	0	0	0	0	0	0	1	0	0	0	0	0	0	0	0	0	1	incorrect	6532	
34	1	dummy	nappe	
34	1	dummy	herbe	
35	1	IS  (9 : 1) + 8 = 18   ?, feuille	0	0	0	0	0	0	0	0	0	0	0	0	0	1	0	0	0	0	0	0	0	0	1	incorrect	6751	
35	2	IS  (6 x 3) - 2 = 11   ?, poupée	0	0	0	0	0	0	0	0	0	0	0	0	0	1	0	0	0	0	0	0	0	0	1	incorrect	7601	
35	3	IS  (6 x 4) + 1 = 25   ?, peinture	0	0	0	0	0	0	0	0	0	0	0	0	0	1	0	0	0	0	0	0	0	1	0	correct	8960	
35	4	IS  (10 x 2) - 6 = 12   ?, femme	0	0	0	0	0	0	0	0	0	0	0	0	0	1	0	0	0	0	0	0	0	0	1	incorrect	7125	
35	5	IS  (5 x 1) - 1 = 5   ?, église	0	0	0	0	0	0	0	0	0	0	0	0	0	1	0	0	0	0	0	0	0	0	1	incorrect	12543	
35	6	IS  (9 x 3) - 3 = 24   ?, lettre	0	0	0	0	0	0	0	0	0	0	0	0	0	1	0	0	0	0	0	0	0	1	0	incorrect	27786	
36	1	dummy	feuille	
36	1	dummy	poupee	
36	1	dummy	pointure	
36	1	dummy	lettre	
36	1	dummy	femme	
36	1	dummy	pointure	
37	1	IS  (5 x 1) - 1 = 5   ?, femme	0	0	0	0	0	0	0	0	0	0	0	0	0	1	0	0	0	0	0	0	0	0	1	incorrect	5774	
37	2	IS  (6 x 4) + 1 = 25   ?, lettre	0	0	0	0	0	0	0	0	0	0	0	0	0	1	0	0	0	0	0	0	0	1	0	correct	7631	
37	3	IS  (6 x 3) - 2 = 11   ?, église	0	0	0	0	0	0	0	0	0	0	0	0	0	1	0	0	0	0	0	0	0	0	1	incorrect	7195	
37	4	IS  (9 : 1) + 8 = 18   ?, peinture	0	0	0	0	0	0	0	0	0	0	0	0	0	1	0	0	0	0	0	0	0	0	1	incorrect	11610	
38	1	dummy	femme	
38	1	dummy	lettre	
38	1	dummy	église	
38	1	dummy	pointure	
