block number	trial number	trial contents	set1	set2	set3	set4	set5	set6	set7	set8	set9	set10	set11	set12	set13	set14	set15	set_Ex1	set_Ex2	set_Ex3	set_Ex4	set_Ex5	set_Ex6	correct_operation	incorrect_operation	response	RT	
1	1	IS  (5 x 1) - 1 = 4   ?, balle	0	0	0	0	0	0	0	0	0	0	0	0	0	0	0	1	0	0	0	0	0	1	0	correct	6712	
2	1	IS  (2 x 3) + 1 = 4   ?, bouche	0	0	0	0	0	0	0	0	0	0	0	0	0	0	0	0	1	0	0	0	0	0	1	incorrect	3957	
3	1	IS  (6 x 3) + 2 = 17   ?, sol	0	0	0	0	0	0	0	0	0	0	0	0	0	0	0	0	0	1	0	0	0	0	1	incorrect	3549	
4	1	IS  (2 x 2) + 1 = 4   ?, groupe	0	0	0	0	0	0	0	0	0	0	0	0	0	0	0	0	0	0	1	0	0	0	1	incorrect	4133	
5	1	dummy	-sol	
5	1	dummy	groupe	
6	1	IS  (3 : 1) - 2 = 3   ?, prix	0	0	0	0	0	0	0	0	0	0	0	0	0	0	0	0	0	0	0	1	0	0	1	incorrect	4153	
7	1	IS  (10 : 2) + 4 = 3   ?, pain	0	0	0	0	0	0	0	0	0	0	0	0	0	0	0	0	0	0	0	0	1	0	1	incorrect	5001	
8	1	dummy	²prix	
8	1	dummy	pain	
9	1	IS  (8 : 2) + 4 = 2   ?, lait	1	0	0	0	0	0	0	0	0	0	0	0	0	0	0	0	0	0	0	0	0	0	1	incorrect	4438	
9	2	IS  (5 : 1) + 4 = 9   ?, argent	1	0	0	0	0	0	0	0	0	0	0	0	0	0	0	0	0	0	0	0	0	1	0	correct	3745	
9	3	IS  (9 x 2) - 3 = 16   ?, bois	1	0	0	0	0	0	0	0	0	0	0	0	0	0	0	0	0	0	0	0	0	0	1	incorrect	7191	
10	1	dummy	lait	
10	1	dummy	argent	
10	1	dummy	bois	
11	1	IS  (8 : 8) + 1 = 2   ?, coeur	0	1	0	0	0	0	0	0	0	0	0	0	0	0	0	0	0	0	0	0	0	1	0	correct	3966	
11	2	IS  (8 x 1) + 8 = 16   ?, mot	0	1	0	0	0	0	0	0	0	0	0	0	0	0	0	0	0	0	0	0	0	1	0	correct	2811	
11	3	IS  (9 : 3) - 2 = 1   ?, rêve	0	1	0	0	0	0	0	0	0	0	0	0	0	0	0	0	0	0	0	0	0	1	0	correct	4974	
11	4	IS  (8 x 1) + 5 = 13   ?, coffre	0	1	0	0	0	0	0	0	0	0	0	0	0	0	0	0	0	0	0	0	0	1	0	correct	7599	
11	5	IS  (10 : 10) - 1 = 2   ?, air	0	1	0	0	0	0	0	0	0	0	0	0	0	0	0	0	0	0	0	0	0	0	1	incorrect	6071	
12	1	dummy	--coeur	
12	1	dummy	mot	
12	1	dummy	reve	
12	1	dummy	coffre	
12	1	dummy	 	
13	1	IS  (4 x 4) + 1 = 17   ?, bicyclette	0	0	1	0	0	0	0	0	0	0	0	0	0	0	0	0	0	0	0	0	0	1	0	correct	5219	
13	2	IS  (9 : 1) - 7 = 4   ?, fourchette	0	0	1	0	0	0	0	0	0	0	0	0	0	0	0	0	0	0	0	0	0	0	1	incorrect	9932	
13	3	IS  (6 x 2) - 3 = 10   ?, sac	0	0	1	0	0	0	0	0	0	0	0	0	0	0	0	0	0	0	0	0	0	0	1	incorrect	8565	
14	1	dummy	²bicyclette	
14	1	dummy	foruchette	
14	1	dummy	 	
15	1	IS  (3 : 1) + 3 = 6   ?, fête	0	0	0	1	0	0	0	0	0	0	0	0	0	0	0	0	0	0	0	0	0	1	0	correct	5055	
15	2	IS  (8 x 4) + 2 = 34   ?, tissu	0	0	0	1	0	0	0	0	0	0	0	0	0	0	0	0	0	0	0	0	0	1	0	correct	9598	
16	1	dummy	-fete	
16	1	dummy	tissu	
17	1	IS  (4 : 1) + 1 = 4   ?, cri	0	0	0	0	1	0	0	0	0	0	0	0	0	0	0	0	0	0	0	0	0	0	1	incorrect	3618	
17	2	IS  (4 : 1) - 4 = 2   ?, voie	0	0	0	0	1	0	0	0	0	0	0	0	0	0	0	0	0	0	0	0	0	0	1	incorrect	4060	
17	3	IS  (10 : 1) + 1 = 10   ?, pierre	0	0	0	0	1	0	0	0	0	0	0	0	0	0	0	0	0	0	0	0	0	0	1	incorrect	4529	
17	4	IS  (7 x 2) - 3 = 11   ?, verre	0	0	0	0	1	0	0	0	0	0	0	0	0	0	0	0	0	0	0	0	0	1	0	correct	4991	
17	5	IS  (10 x 2) + 3 = 23   ?, maison	0	0	0	0	1	0	0	0	0	0	0	0	0	0	0	0	0	0	0	0	0	1	0	correct	8907	
18	1	dummy	²²cri	
18	1	dummy	voie	
18	1	dummy	pierre	
18	1	dummy	 	
18	1	dummy	 	
19	1	IS  (5 x 2) + 1 = 6   ?, tête	0	0	0	0	0	1	0	0	0	0	0	0	0	0	0	0	0	0	0	0	0	0	1	incorrect	3399	
19	2	IS  (3 x 2) + 1 = 6   ?, plan	0	0	0	0	0	1	0	0	0	0	0	0	0	0	0	0	0	0	0	0	0	0	1	incorrect	4288	
19	3	IS  (9 x 1) - 1 = 8   ?, escalier	0	0	0	0	0	1	0	0	0	0	0	0	0	0	0	0	0	0	0	0	0	1	0	correct	5961	
19	4	IS  (9 x 2) + 1 = 18   ?, enfant	0	0	0	0	0	1	0	0	0	0	0	0	0	0	0	0	0	0	0	0	0	0	1	incorrect	2965	
19	5	IS  (9 : 1) - 5 = 4   ?, montre	0	0	0	0	0	1	0	0	0	0	0	0	0	0	0	0	0	0	0	0	0	1	0	correct	7981	
20	1	dummy	²²-plan	
20	1	dummy	tete	
20	1	dummy	escalier	
20	1	dummy	enfants	
20	1	dummy	 	
21	1	IS  (10 : 2) - 3 = 2   ?, chemise	0	0	0	0	0	0	1	0	0	0	0	0	0	0	0	0	0	0	0	0	0	1	0	correct	3256	
21	2	IS  (9 : 3) - 1 = 2   ?, serrure	0	0	0	0	0	0	1	0	0	0	0	0	0	0	0	0	0	0	0	0	0	1	0	correct	8522	
21	3	IS  (10 : 2) + 4 = 9   ?, montagne	0	0	0	0	0	0	1	0	0	0	0	0	0	0	0	0	0	0	0	0	0	1	0	correct	3734	
21	4	IS  (4 : 2) + 1 = 6   ?, homme	0	0	0	0	0	0	1	0	0	0	0	0	0	0	0	0	0	0	0	0	0	0	1	incorrect	3438	
21	5	IS  (4 x 2) + 1 = 9   ?, bouteille	0	0	0	0	0	0	1	0	0	0	0	0	0	0	0	0	0	0	0	0	0	1	0	correct	6686	
21	6	IS  (6 x 1) - 4 = 1   ?, sang	0	0	0	0	0	0	1	0	0	0	0	0	0	0	0	0	0	0	0	0	0	0	1	incorrect	10638	
22	1	dummy	--chemise	
22	1	dummy	bouteille	
22	1	dummy	homme	
22	1	dummy	fete	
22	1	dummy	v	
22	1	dummy	 	
23	1	IS  (9 x 3) - 2 = 25   ?, carte	0	0	0	0	0	0	0	1	0	0	0	0	0	0	0	0	0	0	0	0	0	1	0	correct	5693	
23	2	IS  (8 : 1) - 6 = 4   ?, cheval	0	0	0	0	0	0	0	1	0	0	0	0	0	0	0	0	0	0	0	0	0	0	1	incorrect	6400	
23	3	IS  (9 : 3) - 2 = 2   ?, film	0	0	0	0	0	0	0	1	0	0	0	0	0	0	0	0	0	0	0	0	0	0	1	incorrect	4649	
23	4	IS  (6 : 3) + 2 = 4   ?, chaise	0	0	0	0	0	0	0	1	0	0	0	0	0	0	0	0	0	0	0	0	0	1	0	correct	13093	
24	1	dummy	-²²chemise	
24	1	dummy	chemise	
24	1	dummy	chaise	
24	1	dummy	 	
25	1	IS  (3 x 1) + 2 = 2   ?, rouleau	0	0	0	0	0	0	0	0	1	0	0	0	0	0	0	0	0	0	0	0	0	0	1	incorrect	5003	
25	2	IS  (7 x 2) - 1 = 14   ?, robinet	0	0	0	0	0	0	0	0	1	0	0	0	0	0	0	0	0	0	0	0	0	0	1	incorrect	10106	
25	3	IS  (6 : 2) - 2 = 2   ?, assiette	0	0	0	0	0	0	0	0	1	0	0	0	0	0	0	0	0	0	0	0	0	0	1	incorrect	7732	
25	4	IS  (3 x 3) - 1 = 8   ?, village	0	0	0	0	0	0	0	0	1	0	0	0	0	0	0	0	0	0	0	0	0	1	0	correct	5921	
25	5	IS  (5 : 5) + 1 = 2   ?, bouton	0	0	0	0	0	0	0	0	1	0	0	0	0	0	0	0	0	0	0	0	0	1	0	correct	5357	
25	6	IS  (8 x 4) - 2 = 32   ?, classe	0	0	0	0	0	0	0	0	1	0	0	0	0	0	0	0	0	0	0	0	0	0	1	incorrect	10156	
26	1	dummy	²²rouleau	
26	1	dummy	robinet 	
26	1	dummy	 	
26	1	dummy	 	
26	1	dummy	 	
26	1	dummy	 	
27	1	IS  (6 : 2) - 2 = 1   ?, point	0	0	0	0	0	0	0	0	0	1	0	0	0	0	0	0	0	0	0	0	0	1	0	correct	4317	
27	2	IS  (7 x 1) + 6 = 13   ?, travail	0	0	0	0	0	0	0	0	0	1	0	0	0	0	0	0	0	0	0	0	0	1	0	correct	9144	
28	1	dummy	-point	
28	1	dummy	travail	
29	1	IS  (9 x 1) + 9 = 1   ?, chien	0	0	0	0	0	0	0	0	0	0	1	0	0	0	0	0	0	0	0	0	0	0	1	incorrect	3077	
29	2	IS  (10 : 2) - 4 = 3   ?, moustache	0	0	0	0	0	0	0	0	0	0	1	0	0	0	0	0	0	0	0	0	0	0	1	incorrect	7005	
29	3	IS  (7 : 1) + 2 = 7   ?, banque	0	0	0	0	0	0	0	0	0	0	1	0	0	0	0	0	0	0	0	0	0	0	1	incorrect	6495	
29	4	IS  (6 : 2) + 1 = 4   ?, voeu	0	0	0	0	0	0	0	0	0	0	1	0	0	0	0	0	0	0	0	0	0	1	0	correct	3783	
30	1	dummy	²²-chien	
30	1	dummy	moustache	
30	1	dummy	banque	
30	1	dummy	voeu	
31	1	IS  (2 x 1) - 1 = 1   ?, toit	0	0	0	0	0	0	0	0	0	0	0	1	0	0	0	0	0	0	0	0	0	1	0	correct	3306	
31	2	IS  (10 : 1) + 3 = 13   ?, mur	0	0	0	0	0	0	0	0	0	0	0	1	0	0	0	0	0	0	0	0	0	1	0	correct	3612	
31	3	IS  (8 : 4) - 1 = 1   ?, étable	0	0	0	0	0	0	0	0	0	0	0	1	0	0	0	0	0	0	0	0	0	1	0	correct	5463	
32	1	dummy	--toit	
32	1	dummy	mur	
32	1	dummy	etable	
33	1	IS  (10 : 2) + 4 = 8   ?, herbe	0	0	0	0	0	0	0	0	0	0	0	0	1	0	0	0	0	0	0	0	0	0	1	incorrect	3785	
33	2	IS  (7 x 7) + 1 = 49   ?, nappe	0	0	0	0	0	0	0	0	0	0	0	0	1	0	0	0	0	0	0	0	0	0	1	incorrect	3803	
34	1	dummy	²²herbe	
34	1	dummy	nappe	
35	1	IS  (5 x 1) - 1 = 5   ?, lettre	0	0	0	0	0	0	0	0	0	0	0	0	0	1	0	0	0	0	0	0	0	0	1	incorrect	6557	
35	2	IS  (6 x 4) + 1 = 25   ?, peinture	0	0	0	0	0	0	0	0	0	0	0	0	0	1	0	0	0	0	0	0	0	1	0	correct	5714	
35	3	IS  (9 x 3) - 3 = 24   ?, église	0	0	0	0	0	0	0	0	0	0	0	0	0	1	0	0	0	0	0	0	0	1	0	correct	4346	
35	4	IS  (9 : 1) + 8 = 18   ?, femme	0	0	0	0	0	0	0	0	0	0	0	0	0	1	0	0	0	0	0	0	0	0	1	incorrect	9423	
35	5	IS  (10 x 2) - 6 = 12   ?, feuille	0	0	0	0	0	0	0	0	0	0	0	0	0	1	0	0	0	0	0	0	0	0	1	incorrect	9110	
35	6	IS  (6 x 3) - 2 = 11   ?, poupée	0	0	0	0	0	0	0	0	0	0	0	0	0	1	0	0	0	0	0	0	0	0	1	incorrect	8892	
36	1	dummy	²-²²eglise	
36	1	dummy	peinture	
36	1	dummy	femme	
36	1	dummy	poupé	
36	1	dummy	 	
36	1	dummy	 	
37	1	IS  (10 x 2) - 6 = 12   ?, femme	0	0	0	0	0	0	0	0	0	0	0	0	0	1	0	0	0	0	0	0	0	0	1	incorrect	9481	
37	2	IS  (6 x 3) - 2 = 11   ?, église	0	0	0	0	0	0	0	0	0	0	0	0	0	1	0	0	0	0	0	0	0	0	1	incorrect	4261	
37	3	IS  (5 x 1) - 1 = 5   ?, peinture	0	0	0	0	0	0	0	0	0	0	0	0	0	1	0	0	0	0	0	0	0	0	1	incorrect	3393	
37	4	IS  (6 x 4) + 1 = 25   ?, feuille	0	0	0	0	0	0	0	0	0	0	0	0	0	1	0	0	0	0	0	0	0	1	0	correct	4467	
38	1	dummy	²²femme	
38	1	dummy	eglise	
38	1	dummy	peinture	
38	1	dummy	feuille	
