block number	trial number	trial contents	set1	set2	set3	set4	set5	set6	set7	set8	set9	set10	set11	set12	set13	set14	set15	set_Ex1	set_Ex2	set_Ex3	set_Ex4	set_Ex5	set_Ex6	correct_operation	incorrect_operation	response	RT	
1	1	IS  (5 x 1) - 1 = 4   ?, balle	0	0	0	0	0	0	0	0	0	0	0	0	0	0	0	1	0	0	0	0	0	1	0	correct	6952	
2	1	IS  (2 x 3) + 1 = 4   ?, bouche	0	0	0	0	0	0	0	0	0	0	0	0	0	0	0	0	1	0	0	0	0	0	1	incorrect	4371	
3	1	IS  (6 x 3) + 2 = 17   ?, sol	0	0	0	0	0	0	0	0	0	0	0	0	0	0	0	0	0	1	0	0	0	0	1	incorrect	3978	
4	1	IS  (2 x 2) + 1 = 4   ?, groupe	0	0	0	0	0	0	0	0	0	0	0	0	0	0	0	0	0	0	1	0	0	0	1	incorrect	8567	
5	1	dummy	bouche	
5	1	dummy	sol	
6	1	IS  (3 : 1) - 2 = 3   ?, prix	0	0	0	0	0	0	0	0	0	0	0	0	0	0	0	0	0	0	0	1	0	0	1	incorrect	4846	
7	1	IS  (10 : 2) + 4 = 3   ?, pain	0	0	0	0	0	0	0	0	0	0	0	0	0	0	0	0	0	0	0	0	1	0	1	incorrect	3120	
8	1	dummy	prix	
8	1	dummy	pain	
9	1	IS  (8 : 2) + 4 = 2   ?, argent	1	0	0	0	0	0	0	0	0	0	0	0	0	0	0	0	0	0	0	0	0	0	1	incorrect	3681	
9	2	IS  (5 : 1) + 4 = 9   ?, bois	1	0	0	0	0	0	0	0	0	0	0	0	0	0	0	0	0	0	0	0	0	1	0	correct	3031	
9	3	IS  (9 x 2) - 3 = 16   ?, lait	1	0	0	0	0	0	0	0	0	0	0	0	0	0	0	0	0	0	0	0	0	0	1	incorrect	5724	
10	1	dummy	argent	
10	1	dummy	bois	
10	1	dummy	lait	
11	1	IS  (8 : 8) + 1 = 2   ?, mot	0	1	0	0	0	0	0	0	0	0	0	0	0	0	0	0	0	0	0	0	0	1	0	correct	3765	
11	2	IS  (9 : 3) - 2 = 1   ?, air	0	1	0	0	0	0	0	0	0	0	0	0	0	0	0	0	0	0	0	0	0	1	0	correct	4516	
11	3	IS  (10 : 10) - 1 = 2   ?, coeur	0	1	0	0	0	0	0	0	0	0	0	0	0	0	0	0	0	0	0	0	0	0	1	incorrect	4328	
11	4	IS  (8 x 1) + 8 = 16   ?, rêve	0	1	0	0	0	0	0	0	0	0	0	0	0	0	0	0	0	0	0	0	0	1	0	correct	3323	
11	5	IS  (8 x 1) + 5 = 13   ?, coffre	0	1	0	0	0	0	0	0	0	0	0	0	0	0	0	0	0	0	0	0	0	1	0	correct	6785	
12	1	dummy	eau	
12	1	dummy	air	
12	1	dummy	bois	
12	1	dummy	me rappele plus  	
12	1	dummy	jimmy	
13	1	IS  (6 x 2) - 3 = 10   ?, sac	0	0	1	0	0	0	0	0	0	0	0	0	0	0	0	0	0	0	0	0	0	0	1	incorrect	3667	
13	2	IS  (9 : 1) - 7 = 4   ?, bicyclette	0	0	1	0	0	0	0	0	0	0	0	0	0	0	0	0	0	0	0	0	0	0	1	incorrect	13545	
13	3	IS  (4 x 4) + 1 = 17   ?, fourchette	0	0	1	0	0	0	0	0	0	0	0	0	0	0	0	0	0	0	0	0	0	1	0	correct	4560	
14	1	dummy	plus	
14	1	dummy	fourchette	
14	1	dummy	air	
15	1	IS  (3 : 1) + 3 = 6   ?, tissu	0	0	0	1	0	0	0	0	0	0	0	0	0	0	0	0	0	0	0	0	0	1	0	correct	7864	
15	2	IS  (8 x 4) + 2 = 34   ?, fête	0	0	0	1	0	0	0	0	0	0	0	0	0	0	0	0	0	0	0	0	0	1	0	correct	7764	
16	1	dummy	fête	
16	1	dummy	tissu	
17	1	IS  (10 : 1) + 1 = 10   ?, pierre	0	0	0	0	1	0	0	0	0	0	0	0	0	0	0	0	0	0	0	0	0	0	1	incorrect	5295	
17	2	IS  (10 x 2) + 3 = 23   ?, cri	0	0	0	0	1	0	0	0	0	0	0	0	0	0	0	0	0	0	0	0	0	1	0	correct	2655	
17	3	IS  (4 : 1) + 1 = 4   ?, maison	0	0	0	0	1	0	0	0	0	0	0	0	0	0	0	0	0	0	0	0	0	0	1	incorrect	3775	
17	4	IS  (7 x 2) - 3 = 11   ?, voie	0	0	0	0	1	0	0	0	0	0	0	0	0	0	0	0	0	0	0	0	0	1	0	correct	4380	
17	5	IS  (4 : 1) - 4 = 2   ?, verre	0	0	0	0	1	0	0	0	0	0	0	0	0	0	0	0	0	0	0	0	0	0	1	incorrect	11884	
18	1	dummy	pierre	
18	1	dummy	cris	
18	1	dummy	maison	
18	1	dummy	prruuut	
18	1	dummy	toz	
19	1	IS  (5 x 2) + 1 = 6   ?, tête	0	0	0	0	0	1	0	0	0	0	0	0	0	0	0	0	0	0	0	0	0	0	1	incorrect	5559	
19	2	IS  (9 : 1) - 5 = 4   ?, enfant	0	0	0	0	0	1	0	0	0	0	0	0	0	0	0	0	0	0	0	0	0	1	0	correct	6743	
19	3	IS  (3 x 2) + 1 = 6   ?, montre	0	0	0	0	0	1	0	0	0	0	0	0	0	0	0	0	0	0	0	0	0	0	1	incorrect	3827	
19	4	IS  (9 x 2) + 1 = 18   ?, escalier	0	0	0	0	0	1	0	0	0	0	0	0	0	0	0	0	0	0	0	0	0	0	1	incorrect	2627	
19	5	IS  (9 x 1) - 1 = 8   ?, plan	0	0	0	0	0	1	0	0	0	0	0	0	0	0	0	0	0	0	0	0	0	1	0	correct	4586	
20	1	dummy	enfant	
20	1	dummy	montre	
20	1	dummy	escalier	
20	1	dummy	toit	
20	1	dummy	zob	
21	1	IS  (4 : 2) + 1 = 6   ?, montagne	0	0	0	0	0	0	1	0	0	0	0	0	0	0	0	0	0	0	0	0	0	0	1	incorrect	19537	
21	2	IS  (10 : 2) - 3 = 2   ?, homme	0	0	0	0	0	0	1	0	0	0	0	0	0	0	0	0	0	0	0	0	0	1	0	correct	8419	
21	3	IS  (10 : 2) + 4 = 9   ?, bouteille	0	0	0	0	0	0	1	0	0	0	0	0	0	0	0	0	0	0	0	0	0	1	0	correct	2895	
21	4	IS  (9 : 3) - 1 = 2   ?, chemise	0	0	0	0	0	0	1	0	0	0	0	0	0	0	0	0	0	0	0	0	0	1	0	correct	3814	
21	5	IS  (6 x 1) - 4 = 1   ?, sang	0	0	0	0	0	0	1	0	0	0	0	0	0	0	0	0	0	0	0	0	0	0	1	incorrect	17239	
21	6	IS  (4 x 2) + 1 = 9   ?, serrure	0	0	0	0	0	0	1	0	0	0	0	0	0	0	0	0	0	0	0	0	0	1	0	correct	9347	
22	1	dummy	montagne	
22	1	dummy	verre	
22	1	dummy	chaud	
22	1	dummy	de 	
22	1	dummy	night	
22	1	dummy	verre	
23	1	IS  (9 : 3) - 2 = 2   ?, film	0	0	0	0	0	0	0	1	0	0	0	0	0	0	0	0	0	0	0	0	0	0	1	incorrect	11685	
23	2	IS  (8 : 1) - 6 = 4   ?, chaise	0	0	0	0	0	0	0	1	0	0	0	0	0	0	0	0	0	0	0	0	0	0	1	incorrect	10413	
23	3	IS  (9 x 3) - 2 = 25   ?, carte	0	0	0	0	0	0	0	1	0	0	0	0	0	0	0	0	0	0	0	0	0	1	0	correct	7935	
23	4	IS  (6 : 3) + 2 = 4   ?, cheval	0	0	0	0	0	0	0	1	0	0	0	0	0	0	0	0	0	0	0	0	0	1	0	correct	6079	
24	1	dummy	film	
24	1	dummy	tissu	
24	1	dummy	peut etre	
24	1	dummy	verre	
25	1	IS  (3 x 3) - 1 = 8   ?, rouleau	0	0	0	0	0	0	0	0	1	0	0	0	0	0	0	0	0	0	0	0	0	1	0	correct	8000	
25	2	IS  (6 : 2) - 2 = 2   ?, village	0	0	0	0	0	0	0	0	1	0	0	0	0	0	0	0	0	0	0	0	0	0	1	incorrect	4563	
25	3	IS  (8 x 4) - 2 = 32   ?, robinet	0	0	0	0	0	0	0	0	1	0	0	0	0	0	0	0	0	0	0	0	0	0	1	incorrect	6364	
25	4	IS  (3 x 1) + 2 = 2   ?, assiette	0	0	0	0	0	0	0	0	1	0	0	0	0	0	0	0	0	0	0	0	0	0	1	incorrect	19689	
25	5	IS  (5 : 5) + 1 = 2   ?, bouton	0	0	0	0	0	0	0	0	1	0	0	0	0	0	0	0	0	0	0	0	0	1	0	correct	5588	
25	6	IS  (7 x 2) - 1 = 14   ?, classe	0	0	0	0	0	0	0	0	1	0	0	0	0	0	0	0	0	0	0	0	0	0	1	incorrect	3631	
26	1	dummy	village	
26	1	dummy	rouleau	
26	1	dummy	assiette	
26	1	dummy	classe	
26	1	dummy	vaisselle	
26	1	dummy	classe	
27	1	IS  (6 : 2) - 2 = 1   ?, point	0	0	0	0	0	0	0	0	0	1	0	0	0	0	0	0	0	0	0	0	0	1	0	correct	5669	
27	2	IS  (7 x 1) + 6 = 13   ?, travail	0	0	0	0	0	0	0	0	0	1	0	0	0	0	0	0	0	0	0	0	0	1	0	correct	23165	
28	1	dummy	travail	
28	1	dummy	couleur	
29	1	IS  (7 : 1) + 2 = 7   ?, voeu	0	0	0	0	0	0	0	0	0	0	1	0	0	0	0	0	0	0	0	0	0	0	1	incorrect	5308	
29	2	IS  (6 : 2) + 1 = 4   ?, chien	0	0	0	0	0	0	0	0	0	0	1	0	0	0	0	0	0	0	0	0	0	1	0	correct	4144	
29	3	IS  (9 x 1) + 9 = 1   ?, banque	0	0	0	0	0	0	0	0	0	0	1	0	0	0	0	0	0	0	0	0	0	0	1	incorrect	3848	
29	4	IS  (10 : 2) - 4 = 3   ?, moustache	0	0	0	0	0	0	0	0	0	0	1	0	0	0	0	0	0	0	0	0	0	0	1	incorrect	3580	
30	1	dummy	voeu	
30	1	dummy	chien	
30	1	dummy	moustache	
30	1	dummy	flic	
31	1	IS  (10 : 1) + 3 = 13   ?, toit	0	0	0	0	0	0	0	0	0	0	0	1	0	0	0	0	0	0	0	0	0	1	0	correct	4679	
31	2	IS  (8 : 4) - 1 = 1   ?, étable	0	0	0	0	0	0	0	0	0	0	0	1	0	0	0	0	0	0	0	0	0	1	0	correct	8043	
31	3	IS  (2 x 1) - 1 = 1   ?, mur	0	0	0	0	0	0	0	0	0	0	0	1	0	0	0	0	0	0	0	0	0	1	0	correct	4689	
32	1	dummy	toit	
32	1	dummy	etable	
32	1	dummy	mur	
33	1	IS  (10 : 2) + 4 = 8   ?, herbe	0	0	0	0	0	0	0	0	0	0	0	0	1	0	0	0	0	0	0	0	0	0	1	incorrect	6179	
33	2	IS  (7 x 7) + 1 = 49   ?, nappe	0	0	0	0	0	0	0	0	0	0	0	0	1	0	0	0	0	0	0	0	0	0	1	incorrect	7735	
34	1	dummy	nappe	
34	1	dummy	toit	
35	1	IS  (10 x 2) - 6 = 12   ?, feuille	0	0	0	0	0	0	0	0	0	0	0	0	0	1	0	0	0	0	0	0	0	0	1	incorrect	7870	
35	2	IS  (9 x 3) - 3 = 24   ?, église	0	0	0	0	0	0	0	0	0	0	0	0	0	1	0	0	0	0	0	0	0	1	0	correct	5302	
35	3	IS  (9 : 1) + 8 = 18   ?, femme	0	0	0	0	0	0	0	0	0	0	0	0	0	1	0	0	0	0	0	0	0	0	1	incorrect	4831	
35	4	IS  (5 x 1) - 1 = 5   ?, lettre	0	0	0	0	0	0	0	0	0	0	0	0	0	1	0	0	0	0	0	0	0	0	1	incorrect	7509	
35	5	IS  (6 x 4) + 1 = 25   ?, peinture	0	0	0	0	0	0	0	0	0	0	0	0	0	1	0	0	0	0	0	0	0	1	0	correct	3055	
35	6	IS  (6 x 3) - 2 = 11   ?, poupée	0	0	0	0	0	0	0	0	0	0	0	0	0	1	0	0	0	0	0	0	0	0	1	incorrect	6280	
36	1	dummy	feuille	
36	1	dummy	femme	
36	1	dummy	eglise	
36	1	dummy	poupée	
36	1	dummy	classe	
36	1	dummy	argent	
37	1	IS  (9 : 1) + 8 = 18   ?, lettre	0	0	0	0	0	0	0	0	0	0	0	0	0	1	0	0	0	0	0	0	0	0	1	correct	1984	
37	2	IS  (10 x 2) - 6 = 12   ?, église	0	0	0	0	0	0	0	0	0	0	0	0	0	1	0	0	0	0	0	0	0	0	1	correct	3352	
37	3	IS  (5 x 1) - 1 = 5   ?, poupée	0	0	0	0	0	0	0	0	0	0	0	0	0	1	0	0	0	0	0	0	0	0	1	incorrect	6386	
37	4	IS  (6 x 4) + 1 = 25   ?, feuille	0	0	0	0	0	0	0	0	0	0	0	0	0	1	0	0	0	0	0	0	0	1	0	correct	5831	
38	1	dummy	poupée	
38	1	dummy	maison	
38	1	dummy	verre	
38	1	dummy	eglise	
