block number	trial number	trial contents	set1	set2	set3	set4	set5	set6	set7	set8	set9	set10	set11	set12	set13	set14	set15	set_Ex1	set_Ex2	set_Ex3	set_Ex4	set_Ex5	set_Ex6	correct_operation	incorrect_operation	response	RT	
1	1	IS  (5 x 1) - 1 = 4   ?, balle	0	0	0	0	0	0	0	0	0	0	0	0	0	0	0	1	0	0	0	0	0	1	0	correct	5550	
2	1	IS  (2 x 3) + 1 = 4   ?, bouche	0	0	0	0	0	0	0	0	0	0	0	0	0	0	0	0	1	0	0	0	0	0	1	incorrect	6036	
3	1	IS  (6 x 3) + 2 = 17   ?, sol	0	0	0	0	0	0	0	0	0	0	0	0	0	0	0	0	0	1	0	0	0	0	1	correct	7444	
4	1	IS  (2 x 2) + 1 = 4   ?, groupe	0	0	0	0	0	0	0	0	0	0	0	0	0	0	0	0	0	0	1	0	0	0	1	incorrect	2616	
5	1	dummy	-² sol 	
5	1	dummy	groupe	
6	1	IS  (3 : 1) - 2 = 3   ?, prix	0	0	0	0	0	0	0	0	0	0	0	0	0	0	0	0	0	0	0	1	0	0	1	incorrect	2388	
7	1	IS  (10 : 2) + 4 = 3   ?, pain	0	0	0	0	0	0	0	0	0	0	0	0	0	0	0	0	0	0	0	0	1	0	1	incorrect	3323	
8	1	dummy	prix	
8	1	dummy	pan	
9	1	IS  (8 : 2) + 4 = 2   ?, bois	1	0	0	0	0	0	0	0	0	0	0	0	0	0	0	0	0	0	0	0	0	0	1	incorrect	3892	
9	2	IS  (9 x 2) - 3 = 16   ?, argent	1	0	0	0	0	0	0	0	0	0	0	0	0	0	0	0	0	0	0	0	0	0	1	incorrect	3749	
9	3	IS  (5 : 1) + 4 = 9   ?, lait	1	0	0	0	0	0	0	0	0	0	0	0	0	0	0	0	0	0	0	0	0	1	0	correct	3366	
10	1	dummy	bois	
10	1	dummy	argent lait	
10	1	dummy	lait	
11	1	IS  (8 : 8) + 1 = 2   ?, rêve	0	1	0	0	0	0	0	0	0	0	0	0	0	0	0	0	0	0	0	0	0	1	0	correct	6129	
11	2	IS  (10 : 10) - 1 = 2   ?, coeur	0	1	0	0	0	0	0	0	0	0	0	0	0	0	0	0	0	0	0	0	0	0	1	incorrect	2001	
11	3	IS  (8 x 1) + 8 = 16   ?, coffre	0	1	0	0	0	0	0	0	0	0	0	0	0	0	0	0	0	0	0	0	0	1	0	correct	2590	
11	4	IS  (8 x 1) + 5 = 13   ?, air	0	1	0	0	0	0	0	0	0	0	0	0	0	0	0	0	0	0	0	0	0	1	0	correct	4973	
11	5	IS  (9 : 3) - 2 = 1   ?, mot	0	1	0	0	0	0	0	0	0	0	0	0	0	0	0	0	0	0	0	0	0	1	0	correct	6502	
12	1	dummy	reve	
12	1	dummy	coeur	
12	1	dummy	coffre	
12	1	dummy	air	
12	1	dummy	a	
13	1	IS  (9 : 1) - 7 = 4   ?, sac	0	0	1	0	0	0	0	0	0	0	0	0	0	0	0	0	0	0	0	0	0	0	1	incorrect	13859	
13	2	IS  (6 x 2) - 3 = 10   ?, bicyclette	0	0	1	0	0	0	0	0	0	0	0	0	0	0	0	0	0	0	0	0	0	0	1	incorrect	2543	
13	3	IS  (4 x 4) + 1 = 17   ?, fourchette	0	0	1	0	0	0	0	0	0	0	0	0	0	0	0	0	0	0	0	0	0	1	0	correct	3313	
14	1	dummy	²sac 	
14	1	dummy	bicyclette	
14	1	dummy	a	
15	1	IS  (8 x 4) + 2 = 34   ?, tissu	0	0	0	1	0	0	0	0	0	0	0	0	0	0	0	0	0	0	0	0	0	1	0	correct	4306	
15	2	IS  (3 : 1) + 3 = 6   ?, fête	0	0	0	1	0	0	0	0	0	0	0	0	0	0	0	0	0	0	0	0	0	1	0	correct	1485	
16	1	dummy	tissue	
16	1	dummy	fete	
17	1	IS  (10 : 1) + 1 = 10   ?, voie	0	0	0	0	1	0	0	0	0	0	0	0	0	0	0	0	0	0	0	0	0	0	1	incorrect	3176	
17	2	IS  (7 x 2) - 3 = 11   ?, pierre	0	0	0	0	1	0	0	0	0	0	0	0	0	0	0	0	0	0	0	0	0	1	0	correct	2629	
17	3	IS  (10 x 2) + 3 = 23   ?, verre	0	0	0	0	1	0	0	0	0	0	0	0	0	0	0	0	0	0	0	0	0	1	0	correct	5229	
17	4	IS  (4 : 1) - 4 = 2   ?, maison	0	0	0	0	1	0	0	0	0	0	0	0	0	0	0	0	0	0	0	0	0	0	1	incorrect	6190	
17	5	IS  (4 : 1) + 1 = 4   ?, cri	0	0	0	0	1	0	0	0	0	0	0	0	0	0	0	0	0	0	0	0	0	0	1	incorrect	2242	
18	1	dummy	²-vois 	
18	1	dummy	pierre	
18	1	dummy	verre	
18	1	dummy	maison	
18	1	dummy	a	
19	1	IS  (3 x 2) + 1 = 6   ?, escalier	0	0	0	0	0	1	0	0	0	0	0	0	0	0	0	0	0	0	0	0	0	0	1	incorrect	5357	
19	2	IS  (9 x 2) + 1 = 18   ?, enfant	0	0	0	0	0	1	0	0	0	0	0	0	0	0	0	0	0	0	0	0	0	0	1	incorrect	1667	
19	3	IS  (9 x 1) - 1 = 8   ?, tête	0	0	0	0	0	1	0	0	0	0	0	0	0	0	0	0	0	0	0	0	0	1	0	correct	2380	
19	4	IS  (9 : 1) - 5 = 4   ?, plan	0	0	0	0	0	1	0	0	0	0	0	0	0	0	0	0	0	0	0	0	0	1	0	correct	2907	
19	5	IS  (5 x 2) + 1 = 6   ?, montre	0	0	0	0	0	1	0	0	0	0	0	0	0	0	0	0	0	0	0	0	0	0	1	incorrect	2469	
20	1	dummy	escalier	
20	1	dummy	enfant	
20	1	dummy	a	
20	1	dummy	a	
20	1	dummy	a	
21	1	IS  (6 x 1) - 4 = 1   ?, chemise	0	0	0	0	0	0	1	0	0	0	0	0	0	0	0	0	0	0	0	0	0	0	1	incorrect	8404	
21	2	IS  (4 : 2) + 1 = 6   ?, montagne	0	0	0	0	0	0	1	0	0	0	0	0	0	0	0	0	0	0	0	0	0	0	1	incorrect	3305	
21	3	IS  (4 x 2) + 1 = 9   ?, homme	0	0	0	0	0	0	1	0	0	0	0	0	0	0	0	0	0	0	0	0	0	1	0	correct	6272	
21	4	IS  (9 : 3) - 1 = 2   ?, serrure	0	0	0	0	0	0	1	0	0	0	0	0	0	0	0	0	0	0	0	0	0	1	0	correct	7390	
21	5	IS  (10 : 2) + 4 = 9   ?, sang	0	0	0	0	0	0	1	0	0	0	0	0	0	0	0	0	0	0	0	0	0	1	0	correct	5540	
21	6	IS  (10 : 2) - 3 = 2   ?, bouteille	0	0	0	0	0	0	1	0	0	0	0	0	0	0	0	0	0	0	0	0	0	1	0	correct	15511	
22	1	dummy	chemise	
22	1	dummy	montage	
22	1	dummy	homme	
22	1	dummy	serrure	
22	1	dummy	sang	
22	1	dummy	a	
23	1	IS  (8 : 1) - 6 = 4   ?, film	0	0	0	0	0	0	0	1	0	0	0	0	0	0	0	0	0	0	0	0	0	0	1	incorrect	6676	
23	2	IS  (9 : 3) - 2 = 2   ?, carte	0	0	0	0	0	0	0	1	0	0	0	0	0	0	0	0	0	0	0	0	0	0	1	incorrect	6618	
23	3	IS  (9 x 3) - 2 = 25   ?, chaise	0	0	0	0	0	0	0	1	0	0	0	0	0	0	0	0	0	0	0	0	0	1	0	correct	4328	
23	4	IS  (6 : 3) + 2 = 4   ?, cheval	0	0	0	0	0	0	0	1	0	0	0	0	0	0	0	0	0	0	0	0	0	1	0	incorrect	8756	
24	1	dummy	²-film	
24	1	dummy	chase	
24	1	dummy	cheval	
24	1	dummy	a	
25	1	IS  (3 x 1) + 2 = 2   ?, robinet	0	0	0	0	0	0	0	0	1	0	0	0	0	0	0	0	0	0	0	0	0	0	1	incorrect	3051	
25	2	IS  (8 x 4) - 2 = 32   ?, bouton	0	0	0	0	0	0	0	0	1	0	0	0	0	0	0	0	0	0	0	0	0	0	1	incorrect	3921	
25	3	IS  (5 : 5) + 1 = 2   ?, rouleau	0	0	0	0	0	0	0	0	1	0	0	0	0	0	0	0	0	0	0	0	0	1	0	correct	8222	
25	4	IS  (6 : 2) - 2 = 2   ?, classe	0	0	0	0	0	0	0	0	1	0	0	0	0	0	0	0	0	0	0	0	0	0	1	incorrect	1966	
25	5	IS  (3 x 3) - 1 = 8   ?, village	0	0	0	0	0	0	0	0	1	0	0	0	0	0	0	0	0	0	0	0	0	1	0	correct	6508	
25	6	IS  (7 x 2) - 1 = 14   ?, assiette	0	0	0	0	0	0	0	0	1	0	0	0	0	0	0	0	0	0	0	0	0	0	1	incorrect	1474	
26	1	dummy	²²robinet	
26	1	dummy	bouton	
26	1	dummy	classe	
26	1	dummy	aa	
26	1	dummy	a	
26	1	dummy	a	
27	1	IS  (6 : 2) - 2 = 1   ?, travail	0	0	0	0	0	0	0	0	0	1	0	0	0	0	0	0	0	0	0	0	0	1	0	correct	10398	
27	2	IS  (7 x 1) + 6 = 13   ?, point	0	0	0	0	0	0	0	0	0	1	0	0	0	0	0	0	0	0	0	0	0	1	0	correct	3145	
28	1	dummy	-travail	
28	1	dummy	point	
29	1	IS  (9 x 1) + 9 = 1   ?, chien	0	0	0	0	0	0	0	0	0	0	1	0	0	0	0	0	0	0	0	0	0	0	1	incorrect	11526	
29	2	IS  (6 : 2) + 1 = 4   ?, voeu	0	0	0	0	0	0	0	0	0	0	1	0	0	0	0	0	0	0	0	0	0	1	0	correct	8857	
29	3	IS  (7 : 1) + 2 = 7   ?, banque	0	0	0	0	0	0	0	0	0	0	1	0	0	0	0	0	0	0	0	0	0	0	1	incorrect	1608	
29	4	IS  (10 : 2) - 4 = 3   ?, moustache	0	0	0	0	0	0	0	0	0	0	1	0	0	0	0	0	0	0	0	0	0	0	1	incorrect	4088	
30	1	dummy	²chien	
30	1	dummy	veau	
30	1	dummy	moustache	
30	1	dummy	banque	
31	1	IS  (2 x 1) - 1 = 1   ?, mur	0	0	0	0	0	0	0	0	0	0	0	1	0	0	0	0	0	0	0	0	0	1	0	correct	6542	
31	2	IS  (8 : 4) - 1 = 1   ?, étable	0	0	0	0	0	0	0	0	0	0	0	1	0	0	0	0	0	0	0	0	0	1	0	correct	10069	
31	3	IS  (10 : 1) + 3 = 13   ?, toit	0	0	0	0	0	0	0	0	0	0	0	1	0	0	0	0	0	0	0	0	0	1	0	correct	3050	
32	1	dummy	--mur	
32	1	dummy	etable	
32	1	dummy	toit	
33	1	IS  (7 x 7) + 1 = 49   ?, herbe	0	0	0	0	0	0	0	0	0	0	0	0	1	0	0	0	0	0	0	0	0	0	1	incorrect	3522	
33	2	IS  (10 : 2) + 4 = 8   ?, nappe	0	0	0	0	0	0	0	0	0	0	0	0	1	0	0	0	0	0	0	0	0	0	1	incorrect	2124	
34	1	dummy	²herbe	
34	1	dummy	nappe	
35	1	IS  (5 x 1) - 1 = 5   ?, feuille	0	0	0	0	0	0	0	0	0	0	0	0	0	1	0	0	0	0	0	0	0	0	1	incorrect	2255	
35	2	IS  (9 x 3) - 3 = 24   ?, lettre	0	0	0	0	0	0	0	0	0	0	0	0	0	1	0	0	0	0	0	0	0	1	0	correct	2015	
35	3	IS  (10 x 2) - 6 = 12   ?, église	0	0	0	0	0	0	0	0	0	0	0	0	0	1	0	0	0	0	0	0	0	0	1	incorrect	5423	
35	4	IS  (6 x 4) + 1 = 25   ?, peinture	0	0	0	0	0	0	0	0	0	0	0	0	0	1	0	0	0	0	0	0	0	1	0	correct	9421	
35	5	IS  (9 : 1) + 8 = 18   ?, poupée	0	0	0	0	0	0	0	0	0	0	0	0	0	1	0	0	0	0	0	0	0	0	1	incorrect	4819	
35	6	IS  (6 x 3) - 2 = 11   ?, femme	0	0	0	0	0	0	0	0	0	0	0	0	0	1	0	0	0	0	0	0	0	0	1	incorrect	7043	
36	1	dummy	-²feuille	
36	1	dummy	lettre	
36	1	dummy	femme	
36	1	dummy	a	
36	1	dummy	a	
36	1	dummy	a	
37	1	IS  (9 : 1) + 8 = 18   ?, lettre	0	0	0	0	0	0	0	0	0	0	0	0	0	1	0	0	0	0	0	0	0	0	1	incorrect	6606	
37	2	IS  (6 x 3) - 2 = 11   ?, feuille	0	0	0	0	0	0	0	0	0	0	0	0	0	1	0	0	0	0	0	0	0	0	1	incorrect	4484	
37	3	IS  (10 x 2) - 6 = 12   ?, peinture	0	0	0	0	0	0	0	0	0	0	0	0	0	1	0	0	0	0	0	0	0	0	1	incorrect	7994	
37	4	IS  (9 x 3) - 3 = 24   ?, femme	0	0	0	0	0	0	0	0	0	0	0	0	0	1	0	0	0	0	0	0	0	1	0	correct	2677	
38	1	dummy	²²feuille	
38	1	dummy	lettre	
38	1	dummy	enfnt	
38	1	dummy	enfant	
