block number	trial number	trial contents	set1	set2	set3	set4	set5	set6	set7	set8	set9	set10	set11	set12	set13	set14	set15	set_Ex1	set_Ex2	set_Ex3	set_Ex4	set_Ex5	set_Ex6	correct_operation	incorrect_operation	response	RT	
1	1	IS  (5 x 1) - 1 = 4   ?, balle	0	0	0	0	0	0	0	0	0	0	0	0	0	0	0	1	0	0	0	0	0	1	0	correct	10511	
2	1	IS  (2 x 3) + 1 = 4   ?, bouche	0	0	0	0	0	0	0	0	0	0	0	0	0	0	0	0	1	0	0	0	0	0	1	incorrect	3957	
3	1	IS  (6 x 3) + 2 = 17   ?, sol	0	0	0	0	0	0	0	0	0	0	0	0	0	0	0	0	0	1	0	0	0	0	1	incorrect	3483	
4	1	IS  (2 x 2) + 1 = 4   ?, groupe	0	0	0	0	0	0	0	0	0	0	0	0	0	0	0	0	0	0	1	0	0	0	1	incorrect	2520	
5	1	dummy	-sol	
5	1	dummy	group	
6	1	IS  (3 : 1) - 2 = 3   ?, prix	0	0	0	0	0	0	0	0	0	0	0	0	0	0	0	0	0	0	0	1	0	0	1	incorrect	3700	
7	1	IS  (10 : 2) + 4 = 3   ?, pain	0	0	0	0	0	0	0	0	0	0	0	0	0	0	0	0	0	0	0	0	1	0	1	incorrect	2008	
8	1	dummy	²prix	
8	1	dummy	pain	
9	1	IS  (5 : 1) + 4 = 9   ?, bois	1	0	0	0	0	0	0	0	0	0	0	0	0	0	0	0	0	0	0	0	0	1	0	correct	2831	
9	2	IS  (8 : 2) + 4 = 2   ?, lait	1	0	0	0	0	0	0	0	0	0	0	0	0	0	0	0	0	0	0	0	0	0	1	incorrect	2931	
9	3	IS  (9 x 2) - 3 = 16   ?, argent	1	0	0	0	0	0	0	0	0	0	0	0	0	0	0	0	0	0	0	0	0	0	1	incorrect	5789	
10	1	dummy	-bois	
10	1	dummy	lait	
10	1	dummy	argent	
11	1	IS  (8 x 1) + 8 = 16   ?, air	0	1	0	0	0	0	0	0	0	0	0	0	0	0	0	0	0	0	0	0	0	1	0	correct	2181	
11	2	IS  (8 : 8) + 1 = 2   ?, coeur	0	1	0	0	0	0	0	0	0	0	0	0	0	0	0	0	0	0	0	0	0	1	0	correct	1906	
11	3	IS  (8 x 1) + 5 = 13   ?, mot	0	1	0	0	0	0	0	0	0	0	0	0	0	0	0	0	0	0	0	0	0	1	0	correct	2501	
11	4	IS  (10 : 10) - 1 = 2   ?, coffre	0	1	0	0	0	0	0	0	0	0	0	0	0	0	0	0	0	0	0	0	0	0	1	incorrect	2517	
11	5	IS  (9 : 3) - 2 = 1   ?, rêve	0	1	0	0	0	0	0	0	0	0	0	0	0	0	0	0	0	0	0	0	0	1	0	correct	3562	
12	1	dummy	-²air	
12	1	dummy	coeur	
12	1	dummy	mort	
12	1	dummy	coffre	
12	1	dummy	mcoffre	
13	1	IS  (6 x 2) - 3 = 10   ?, bicyclette	0	0	1	0	0	0	0	0	0	0	0	0	0	0	0	0	0	0	0	0	0	0	1	incorrect	5128	
13	2	IS  (9 : 1) - 7 = 4   ?, sac	0	0	1	0	0	0	0	0	0	0	0	0	0	0	0	0	0	0	0	0	0	0	1	incorrect	2454	
13	3	IS  (4 x 4) + 1 = 17   ?, fourchette	0	0	1	0	0	0	0	0	0	0	0	0	0	0	0	0	0	0	0	0	0	1	0	incorrect	2578	
14	1	dummy	²biciclette 	
14	1	dummy	sac	
14	1	dummy	fourchette	
15	1	IS  (3 : 1) + 3 = 6   ?, tissu	0	0	0	1	0	0	0	0	0	0	0	0	0	0	0	0	0	0	0	0	0	1	0	correct	3173	
15	2	IS  (8 x 4) + 2 = 34   ?, fête	0	0	0	1	0	0	0	0	0	0	0	0	0	0	0	0	0	0	0	0	0	1	0	correct	7342	
16	1	dummy	-tissu 	
16	1	dummy	fete	
17	1	IS  (7 x 2) - 3 = 11   ?, voie	0	0	0	0	1	0	0	0	0	0	0	0	0	0	0	0	0	0	0	0	0	1	0	correct	2294	
17	2	IS  (4 : 1) - 4 = 2   ?, pierre	0	0	0	0	1	0	0	0	0	0	0	0	0	0	0	0	0	0	0	0	0	0	1	incorrect	2613	
17	3	IS  (10 x 2) + 3 = 23   ?, verre	0	0	0	0	1	0	0	0	0	0	0	0	0	0	0	0	0	0	0	0	0	1	0	correct	2054	
17	4	IS  (10 : 1) + 1 = 10   ?, maison	0	0	0	0	1	0	0	0	0	0	0	0	0	0	0	0	0	0	0	0	0	0	1	incorrect	3358	
17	5	IS  (4 : 1) + 1 = 4   ?, cri	0	0	0	0	1	0	0	0	0	0	0	0	0	0	0	0	0	0	0	0	0	0	1	incorrect	5674	
18	1	dummy	--voie	
18	1	dummy	pierre	
18	1	dummy	verre	
18	1	dummy	maison	
18	1	dummy	cri	
19	1	IS  (9 x 2) + 1 = 18   ?, montre	0	0	0	0	0	1	0	0	0	0	0	0	0	0	0	0	0	0	0	0	0	0	1	incorrect	2179	
19	2	IS  (9 x 1) - 1 = 8   ?, enfant	0	0	0	0	0	1	0	0	0	0	0	0	0	0	0	0	0	0	0	0	0	1	0	correct	3498	
19	3	IS  (5 x 2) + 1 = 6   ?, plan	0	0	0	0	0	1	0	0	0	0	0	0	0	0	0	0	0	0	0	0	0	0	1	incorrect	2894	
19	4	IS  (9 : 1) - 5 = 4   ?, escalier	0	0	0	0	0	1	0	0	0	0	0	0	0	0	0	0	0	0	0	0	0	1	0	correct	5108	
19	5	IS  (3 x 2) + 1 = 6   ?, tête	0	0	0	0	0	1	0	0	0	0	0	0	0	0	0	0	0	0	0	0	0	0	1	incorrect	4047	
20	1	dummy	²montre	
20	1	dummy	enfant	
20	1	dummy	plan	
20	1	dummy	escalier	
20	1	dummy	tete	
21	1	IS  (4 : 2) + 1 = 6   ?, serrure	0	0	0	0	0	0	1	0	0	0	0	0	0	0	0	0	0	0	0	0	0	0	1	incorrect	3938	
21	2	IS  (9 : 3) - 1 = 2   ?, bouteille	0	0	0	0	0	0	1	0	0	0	0	0	0	0	0	0	0	0	0	0	0	1	0	correct	2537	
21	3	IS  (6 x 1) - 4 = 1   ?, chemise	0	0	0	0	0	0	1	0	0	0	0	0	0	0	0	0	0	0	0	0	0	0	1	incorrect	6033	
21	4	IS  (10 : 2) - 3 = 2   ?, sang	0	0	0	0	0	0	1	0	0	0	0	0	0	0	0	0	0	0	0	0	0	1	0	correct	3781	
21	5	IS  (10 : 2) + 4 = 9   ?, montagne	0	0	0	0	0	0	1	0	0	0	0	0	0	0	0	0	0	0	0	0	0	1	0	correct	3069	
21	6	IS  (4 x 2) + 1 = 9   ?, homme	0	0	0	0	0	0	1	0	0	0	0	0	0	0	0	0	0	0	0	0	0	1	0	correct	5950	
22	1	dummy	-²serrure	
22	1	dummy	butelle	
22	1	dummy	chemisse	
22	1	dummy	sang	
22	1	dummy	montagne 	
22	1	dummy	homme	
23	1	IS  (6 : 3) + 2 = 4   ?, chaise	0	0	0	0	0	0	0	1	0	0	0	0	0	0	0	0	0	0	0	0	0	1	0	correct	3358	
23	2	IS  (9 : 3) - 2 = 2   ?, cheval	0	0	0	0	0	0	0	1	0	0	0	0	0	0	0	0	0	0	0	0	0	0	1	incorrect	2193	
23	3	IS  (8 : 1) - 6 = 4   ?, film	0	0	0	0	0	0	0	1	0	0	0	0	0	0	0	0	0	0	0	0	0	0	1	incorrect	2259	
23	4	IS  (9 x 3) - 2 = 25   ?, carte	0	0	0	0	0	0	0	1	0	0	0	0	0	0	0	0	0	0	0	0	0	1	0	correct	4436	
24	1	dummy	²²chez	
24	1	dummy	cheval	
24	1	dummy	film	
24	1	dummy	carte	
25	1	IS  (3 x 3) - 1 = 8   ?, robinet	0	0	0	0	0	0	0	0	1	0	0	0	0	0	0	0	0	0	0	0	0	1	0	correct	5885	
25	2	IS  (3 x 1) + 2 = 2   ?, rouleau	0	0	0	0	0	0	0	0	1	0	0	0	0	0	0	0	0	0	0	0	0	0	1	incorrect	3790	
25	3	IS  (7 x 2) - 1 = 14   ?, assiette	0	0	0	0	0	0	0	0	1	0	0	0	0	0	0	0	0	0	0	0	0	0	1	incorrect	2437	
25	4	IS  (6 : 2) - 2 = 2   ?, bouton	0	0	0	0	0	0	0	0	1	0	0	0	0	0	0	0	0	0	0	0	0	0	1	incorrect	2624	
25	5	IS  (8 x 4) - 2 = 32   ?, classe	0	0	0	0	0	0	0	0	1	0	0	0	0	0	0	0	0	0	0	0	0	0	1	incorrect	3408	
25	6	IS  (5 : 5) + 1 = 2   ?, village	0	0	0	0	0	0	0	0	1	0	0	0	0	0	0	0	0	0	0	0	0	1	0	correct	3157	
26	1	dummy	-²robinet 	
26	1	dummy	rouleau	
26	1	dummy	assiete	
26	1	dummy	chaisse	
26	1	dummy	bouton	
26	1	dummy	;;;;	
27	1	IS  (6 : 2) - 2 = 1   ?, point	0	0	0	0	0	0	0	0	0	1	0	0	0	0	0	0	0	0	0	0	0	1	0	correct	3703	
27	2	IS  (7 x 1) + 6 = 13   ?, travail	0	0	0	0	0	0	0	0	0	1	0	0	0	0	0	0	0	0	0	0	0	1	0	correct	3896	
28	1	dummy	-point 	
28	1	dummy	travail	
29	1	IS  (6 : 2) + 1 = 4   ?, chien	0	0	0	0	0	0	0	0	0	0	1	0	0	0	0	0	0	0	0	0	0	1	0	correct	2348	
29	2	IS  (10 : 2) - 4 = 3   ?, banque	0	0	0	0	0	0	0	0	0	0	1	0	0	0	0	0	0	0	0	0	0	0	1	incorrect	2696	
29	3	IS  (7 : 1) + 2 = 7   ?, moustache	0	0	0	0	0	0	0	0	0	0	1	0	0	0	0	0	0	0	0	0	0	0	1	incorrect	1631	
29	4	IS  (9 x 1) + 9 = 1   ?, voeu	0	0	0	0	0	0	0	0	0	0	1	0	0	0	0	0	0	0	0	0	0	0	1	incorrect	3339	
30	1	dummy	-²²chien	
30	1	dummy	banque	
30	1	dummy	moustache	
30	1	dummy	voue	
31	1	IS  (8 : 4) - 1 = 1   ?, mur	0	0	0	0	0	0	0	0	0	0	0	1	0	0	0	0	0	0	0	0	0	1	0	correct	3286	
31	2	IS  (2 x 1) - 1 = 1   ?, étable	0	0	0	0	0	0	0	0	0	0	0	1	0	0	0	0	0	0	0	0	0	1	0	correct	1872	
31	3	IS  (10 : 1) + 3 = 13   ?, toit	0	0	0	0	0	0	0	0	0	0	0	1	0	0	0	0	0	0	0	0	0	1	0	correct	3874	
32	1	dummy	--mur	
32	1	dummy	etable	
32	1	dummy	toit	
33	1	IS  (7 x 7) + 1 = 49   ?, nappe	0	0	0	0	0	0	0	0	0	0	0	0	1	0	0	0	0	0	0	0	0	0	1	incorrect	5665	
33	2	IS  (10 : 2) + 4 = 8   ?, herbe	0	0	0	0	0	0	0	0	0	0	0	0	1	0	0	0	0	0	0	0	0	0	1	incorrect	3116	
34	1	dummy	²nappe	
34	1	dummy	herbe	
35	1	IS  (10 x 2) - 6 = 12   ?, église	0	0	0	0	0	0	0	0	0	0	0	0	0	1	0	0	0	0	0	0	0	0	1	incorrect	2369	
35	2	IS  (9 x 3) - 3 = 24   ?, lettre	0	0	0	0	0	0	0	0	0	0	0	0	0	1	0	0	0	0	0	0	0	1	0	correct	3575	
35	3	IS  (6 x 3) - 2 = 11   ?, femme	0	0	0	0	0	0	0	0	0	0	0	0	0	1	0	0	0	0	0	0	0	0	1	incorrect	2792	
35	4	IS  (9 : 1) + 8 = 18   ?, peinture	0	0	0	0	0	0	0	0	0	0	0	0	0	1	0	0	0	0	0	0	0	0	1	incorrect	2027	
35	5	IS  (5 x 1) - 1 = 5   ?, poupée	0	0	0	0	0	0	0	0	0	0	0	0	0	1	0	0	0	0	0	0	0	0	1	incorrect	3541	
35	6	IS  (6 x 4) + 1 = 25   ?, feuille	0	0	0	0	0	0	0	0	0	0	0	0	0	1	0	0	0	0	0	0	0	1	0	incorrect	1286	
36	1	dummy	²²eglise 	
36	1	dummy	lettre	
36	1	dummy	femme	
36	1	dummy	poupee	
36	1	dummy	feuille	
36	1	dummy	painture(feille)	
37	1	IS  (6 x 4) + 1 = 25   ?, poupée	0	0	0	0	0	0	0	0	0	0	0	0	0	1	0	0	0	0	0	0	0	1	0	correct	4988	
37	2	IS  (9 : 1) + 8 = 18   ?, église	0	0	0	0	0	0	0	0	0	0	0	0	0	1	0	0	0	0	0	0	0	0	1	incorrect	2635	
37	3	IS  (5 x 1) - 1 = 5   ?, feuille	0	0	0	0	0	0	0	0	0	0	0	0	0	1	0	0	0	0	0	0	0	0	1	incorrect	1790	
37	4	IS  (10 x 2) - 6 = 12   ?, lettre	0	0	0	0	0	0	0	0	0	0	0	0	0	1	0	0	0	0	0	0	0	0	1	incorrect	2914	
38	1	dummy	-²pouppée 	
38	1	dummy	eglise	
38	1	dummy	feuille	
38	1	dummy	lettre	
