block number	trial number	trial contents	set1	set2	set3	set4	set5	set6	set7	set8	set9	set10	set11	set12	set13	set14	set15	set_Ex1	set_Ex2	set_Ex3	set_Ex4	set_Ex5	set_Ex6	correct_operation	incorrect_operation	response	RT	
1	1	IS  (5 x 1) - 1 = 4   ?, balle	0	0	0	0	0	0	0	0	0	0	0	0	0	0	0	1	0	0	0	0	0	1	0	correct	9054	
2	1	IS  (2 x 3) + 1 = 4   ?, bouche	0	0	0	0	0	0	0	0	0	0	0	0	0	0	0	0	1	0	0	0	0	0	1	incorrect	4901	
3	1	IS  (6 x 3) + 2 = 17   ?, sol	0	0	0	0	0	0	0	0	0	0	0	0	0	0	0	0	0	1	0	0	0	0	1	incorrect	4094	
4	1	IS  (2 x 2) + 1 = 4   ?, groupe	0	0	0	0	0	0	0	0	0	0	0	0	0	0	0	0	0	0	1	0	0	0	1	incorrect	2798	
5	1	dummy	sol	
5	1	dummy	groupe	
6	1	IS  (3 : 1) - 2 = 3   ?, prix	0	0	0	0	0	0	0	0	0	0	0	0	0	0	0	0	0	0	0	1	0	0	1	incorrect	7619	
7	1	IS  (10 : 2) + 4 = 3   ?, pain	0	0	0	0	0	0	0	0	0	0	0	0	0	0	0	0	0	0	0	0	1	0	1	incorrect	3725	
8	1	dummy	prix	
8	1	dummy	pain	
9	1	IS  (8 : 2) + 4 = 2   ?, bois	1	0	0	0	0	0	0	0	0	0	0	0	0	0	0	0	0	0	0	0	0	0	1	incorrect	4094	
9	2	IS  (9 x 2) - 3 = 16   ?, lait	1	0	0	0	0	0	0	0	0	0	0	0	0	0	0	0	0	0	0	0	0	0	1	incorrect	5742	
9	3	IS  (5 : 1) + 4 = 9   ?, argent	1	0	0	0	0	0	0	0	0	0	0	0	0	0	0	0	0	0	0	0	0	1	0	incorrect	6379	
10	1	dummy	prix	
10	1	dummy	groupz	
10	1	dummy	 	
11	1	IS  (8 x 1) + 5 = 13   ?, mot	0	1	0	0	0	0	0	0	0	0	0	0	0	0	0	0	0	0	0	0	0	1	0	correct	20926	
11	2	IS  (9 : 3) - 2 = 1   ?, coeur	0	1	0	0	0	0	0	0	0	0	0	0	0	0	0	0	0	0	0	0	0	1	0	incorrect	5893	
11	3	IS  (8 x 1) + 8 = 16   ?, rêve	0	1	0	0	0	0	0	0	0	0	0	0	0	0	0	0	0	0	0	0	0	1	0	correct	2980	
11	4	IS  (8 : 8) + 1 = 2   ?, air	0	1	0	0	0	0	0	0	0	0	0	0	0	0	0	0	0	0	0	0	0	1	0	correct	5825	
11	5	IS  (10 : 10) - 1 = 2   ?, coffre	0	1	0	0	0	0	0	0	0	0	0	0	0	0	0	0	0	0	0	0	0	0	1	incorrect	7771	
12	1	dummy	mot	
12	1	dummy	coeur	
12	1	dummy	 	
12	1	dummy	 	
12	1	dummy	 	
13	1	IS  (9 : 1) - 7 = 4   ?, bicyclette	0	0	1	0	0	0	0	0	0	0	0	0	0	0	0	0	0	0	0	0	0	0	1	incorrect	4851	
13	2	IS  (4 x 4) + 1 = 17   ?, fourchette	0	0	1	0	0	0	0	0	0	0	0	0	0	0	0	0	0	0	0	0	0	1	0	correct	4421	
13	3	IS  (6 x 2) - 3 = 10   ?, sac	0	0	1	0	0	0	0	0	0	0	0	0	0	0	0	0	0	0	0	0	0	0	1	incorrect	3007	
14	1	dummy	²ye	
14	1	dummy	fourcte	
14	1	dummy	sac	
15	1	IS  (3 : 1) + 3 = 6   ?, fête	0	0	0	1	0	0	0	0	0	0	0	0	0	0	0	0	0	0	0	0	0	1	0	correct	2175	
15	2	IS  (8 x 4) + 2 = 34   ?, tissu	0	0	0	1	0	0	0	0	0	0	0	0	0	0	0	0	0	0	0	0	0	1	0	correct	10156	
16	1	dummy	fete	
16	1	dummy	tissu	
17	1	IS  (7 x 2) - 3 = 11   ?, voie	0	0	0	0	1	0	0	0	0	0	0	0	0	0	0	0	0	0	0	0	0	1	0	correct	8121	
17	2	IS  (4 : 1) + 1 = 4   ?, maison	0	0	0	0	1	0	0	0	0	0	0	0	0	0	0	0	0	0	0	0	0	0	1	incorrect	3806	
17	3	IS  (4 : 1) - 4 = 2   ?, cri	0	0	0	0	1	0	0	0	0	0	0	0	0	0	0	0	0	0	0	0	0	0	1	correct	2345	
17	4	IS  (10 x 2) + 3 = 23   ?, pierre	0	0	0	0	1	0	0	0	0	0	0	0	0	0	0	0	0	0	0	0	0	1	0	correct	7184	
17	5	IS  (10 : 1) + 1 = 10   ?, verre	0	0	0	0	1	0	0	0	0	0	0	0	0	0	0	0	0	0	0	0	0	0	1	incorrect	4587	
18	1	dummy	voie 	
18	1	dummy	maison	
18	1	dummy	cri	
18	1	dummy	pierre	
18	1	dummy	 	
19	1	IS  (9 : 1) - 5 = 4   ?, montre	0	0	0	0	0	1	0	0	0	0	0	0	0	0	0	0	0	0	0	0	0	1	0	correct	3075	
19	2	IS  (5 x 2) + 1 = 6   ?, plan	0	0	0	0	0	1	0	0	0	0	0	0	0	0	0	0	0	0	0	0	0	0	1	incorrect	4164	
19	3	IS  (3 x 2) + 1 = 6   ?, tête	0	0	0	0	0	1	0	0	0	0	0	0	0	0	0	0	0	0	0	0	0	0	1	incorrect	4385	
19	4	IS  (9 x 1) - 1 = 8   ?, escalier	0	0	0	0	0	1	0	0	0	0	0	0	0	0	0	0	0	0	0	0	0	1	0	incorrect	4365	
19	5	IS  (9 x 2) + 1 = 18   ?, enfant	0	0	0	0	0	1	0	0	0	0	0	0	0	0	0	0	0	0	0	0	0	0	1	incorrect	5234	
20	1	dummy	montre	
20	1	dummy	plan 	
20	1	dummy	tete	
20	1	dummy	escalier	
20	1	dummy	 	
21	1	IS  (9 : 3) - 1 = 2   ?, homme	0	0	0	0	0	0	1	0	0	0	0	0	0	0	0	0	0	0	0	0	0	1	0	correct	3627	
21	2	IS  (6 x 1) - 4 = 1   ?, bouteille	0	0	0	0	0	0	1	0	0	0	0	0	0	0	0	0	0	0	0	0	0	0	1	incorrect	4078	
21	3	IS  (10 : 2) + 4 = 9   ?, chemise	0	0	0	0	0	0	1	0	0	0	0	0	0	0	0	0	0	0	0	0	0	1	0	incorrect	2694	
21	4	IS  (4 x 2) + 1 = 9   ?, sang	0	0	0	0	0	0	1	0	0	0	0	0	0	0	0	0	0	0	0	0	0	1	0	incorrect	6119	
21	5	IS  (10 : 2) - 3 = 2   ?, montagne	0	0	0	0	0	0	1	0	0	0	0	0	0	0	0	0	0	0	0	0	0	1	0	incorrect	4925	
21	6	IS  (4 : 2) + 1 = 6   ?, serrure	0	0	0	0	0	0	1	0	0	0	0	0	0	0	0	0	0	0	0	0	0	0	1	incorrect	3315	
22	1	dummy	²homme	
22	1	dummy	montre	
22	1	dummy	chemise	
22	1	dummy	sang	
22	1	dummy	bouteille	
22	1	dummy	 	
23	1	IS  (8 : 1) - 6 = 4   ?, chaise	0	0	0	0	0	0	0	1	0	0	0	0	0	0	0	0	0	0	0	0	0	0	1	incorrect	4128	
23	2	IS  (9 x 3) - 2 = 25   ?, carte	0	0	0	0	0	0	0	1	0	0	0	0	0	0	0	0	0	0	0	0	0	1	0	correct	6143	
23	3	IS  (9 : 3) - 2 = 2   ?, film	0	0	0	0	0	0	0	1	0	0	0	0	0	0	0	0	0	0	0	0	0	0	1	incorrect	7971	
23	4	IS  (6 : 3) + 2 = 4   ?, cheval	0	0	0	0	0	0	0	1	0	0	0	0	0	0	0	0	0	0	0	0	0	1	0	incorrect	3750	
24	1	dummy	chaise	
24	1	dummy	film	
24	1	dummy	 	
24	1	dummy	cheval	
25	1	IS  (8 x 4) - 2 = 32   ?, classe	0	0	0	0	0	0	0	0	1	0	0	0	0	0	0	0	0	0	0	0	0	0	1	incorrect	3390	
25	2	IS  (3 x 1) + 2 = 2   ?, robinet	0	0	0	0	0	0	0	0	1	0	0	0	0	0	0	0	0	0	0	0	0	0	1	incorrect	7330	
25	3	IS  (7 x 2) - 1 = 14   ?, assiette	0	0	0	0	0	0	0	0	1	0	0	0	0	0	0	0	0	0	0	0	0	0	1	incorrect	2519	
25	4	IS  (3 x 3) - 1 = 8   ?, village	0	0	0	0	0	0	0	0	1	0	0	0	0	0	0	0	0	0	0	0	0	1	0	correct	2558	
25	5	IS  (5 : 5) + 1 = 2   ?, rouleau	0	0	0	0	0	0	0	0	1	0	0	0	0	0	0	0	0	0	0	0	0	1	0	correct	4148	
25	6	IS  (6 : 2) - 2 = 2   ?, bouton	0	0	0	0	0	0	0	0	1	0	0	0	0	0	0	0	0	0	0	0	0	0	1	incorrect	6834	
26	1	dummy	²²chaise	
26	1	dummy	village	
26	1	dummy	assiette	
26	1	dummy	sang	
26	1	dummy	robinet	
26	1	dummy	classe	
27	1	IS  (6 : 2) - 2 = 1   ?, travail	0	0	0	0	0	0	0	0	0	1	0	0	0	0	0	0	0	0	0	0	0	1	0	correct	4566	
27	2	IS  (7 x 1) + 6 = 13   ?, point	0	0	0	0	0	0	0	0	0	1	0	0	0	0	0	0	0	0	0	0	0	1	0	correct	3442	
28	1	dummy	-travail	
28	1	dummy	point	
29	1	IS  (7 : 1) + 2 = 7   ?, voeu	0	0	0	0	0	0	0	0	0	0	1	0	0	0	0	0	0	0	0	0	0	0	1	incorrect	4547	
29	2	IS  (6 : 2) + 1 = 4   ?, chien	0	0	0	0	0	0	0	0	0	0	1	0	0	0	0	0	0	0	0	0	0	1	0	correct	3161	
29	3	IS  (10 : 2) - 4 = 3   ?, banque	0	0	0	0	0	0	0	0	0	0	1	0	0	0	0	0	0	0	0	0	0	0	1	incorrect	8102	
29	4	IS  (9 x 1) + 9 = 1   ?, moustache	0	0	0	0	0	0	0	0	0	0	1	0	0	0	0	0	0	0	0	0	0	0	1	incorrect	4828	
30	1	dummy	 	
30	1	dummy	chien	
30	1	dummy	banque	
30	1	dummy	moustache	
31	1	IS  (8 : 4) - 1 = 1   ?, étable	0	0	0	0	0	0	0	0	0	0	0	1	0	0	0	0	0	0	0	0	0	1	0	incorrect	4976	
31	2	IS  (2 x 1) - 1 = 1   ?, toit	0	0	0	0	0	0	0	0	0	0	0	1	0	0	0	0	0	0	0	0	0	1	0	incorrect	2892	
31	3	IS  (10 : 1) + 3 = 13   ?, mur	0	0	0	0	0	0	0	0	0	0	0	1	0	0	0	0	0	0	0	0	0	1	0	correct	6757	
32	1	dummy	etable	
32	1	dummy	toit	
32	1	dummy	mur	
33	1	IS  (7 x 7) + 1 = 49   ?, herbe	0	0	0	0	0	0	0	0	0	0	0	0	1	0	0	0	0	0	0	0	0	0	1	incorrect	7413	
33	2	IS  (10 : 2) + 4 = 8   ?, nappe	0	0	0	0	0	0	0	0	0	0	0	0	1	0	0	0	0	0	0	0	0	0	1	incorrect	3086	
34	1	dummy	herbe	
34	1	dummy	nappe	
35	1	IS  (9 x 3) - 3 = 24   ?, église	0	0	0	0	0	0	0	0	0	0	0	0	0	1	0	0	0	0	0	0	0	1	0	correct	8046	
35	2	IS  (6 x 3) - 2 = 11   ?, lettre	0	0	0	0	0	0	0	0	0	0	0	0	0	1	0	0	0	0	0	0	0	0	1	incorrect	2582	
35	3	IS  (10 x 2) - 6 = 12   ?, feuille	0	0	0	0	0	0	0	0	0	0	0	0	0	1	0	0	0	0	0	0	0	0	1	incorrect	5419	
35	4	IS  (9 : 1) + 8 = 18   ?, peinture	0	0	0	0	0	0	0	0	0	0	0	0	0	1	0	0	0	0	0	0	0	0	1	incorrect	5917	
35	5	IS  (5 x 1) - 1 = 5   ?, poupée	0	0	0	0	0	0	0	0	0	0	0	0	0	1	0	0	0	0	0	0	0	0	1	incorrect	2796	
35	6	IS  (6 x 4) + 1 = 25   ?, femme	0	0	0	0	0	0	0	0	0	0	0	0	0	1	0	0	0	0	0	0	0	1	0	correct	3072	
36	1	dummy	eglise	
36	1	dummy	lettre	
36	1	dummy	nappe	
36	1	dummy	peinture	
36	1	dummy	classe	
36	1	dummy	poupee	
37	1	IS  (8 : 2) - 1 = 3   ?, bras	0	0	0	0	0	0	0	0	0	0	0	0	0	0	1	0	0	0	0	0	0	1	0	correct	2892	
37	2	IS  (10 : 1) - 1 = 9   ?, guide	0	0	0	0	0	0	0	0	0	0	0	0	0	0	1	0	0	0	0	0	0	1	0	incorrect	4572	
37	3	IS  (7 : 1) + 6 = 12   ?, nuit	0	0	0	0	0	0	0	0	0	0	0	0	0	0	1	0	0	0	0	0	0	0	1	incorrect	4784	
37	4	IS  (6 x 2) - 2 = 10   ?, voix	0	0	0	0	0	0	0	0	0	0	0	0	0	0	1	0	0	0	0	0	0	1	0	correct	3932	
38	1	dummy	²bras	
38	1	dummy	guide	
38	1	dummy	nuit	
38	1	dummy	voix	
