block number	trial number	trial contents	set1	set2	set3	set4	set5	set6	set7	set8	set9	set10	set11	set12	set13	set14	set15	set_Ex1	set_Ex2	set_Ex3	set_Ex4	set_Ex5	set_Ex6	correct_operation	incorrect_operation	response	RT	
1	1	IS  (5 x 1) - 1 = 4   ?, balle	0	0	0	0	0	0	0	0	0	0	0	0	0	0	0	1	0	0	0	0	0	1	0	incorrect	4356	
2	1	IS  (2 x 3) + 1 = 4   ?, bouche	0	0	0	0	0	0	0	0	0	0	0	0	0	0	0	0	1	0	0	0	0	0	1	correct	5041	
3	1	IS  (6 x 3) + 2 = 17   ?, sol	0	0	0	0	0	0	0	0	0	0	0	0	0	0	0	0	0	1	0	0	0	0	1	incorrect	3777	
4	1	IS  (2 x 2) + 1 = 4   ?, groupe	0	0	0	0	0	0	0	0	0	0	0	0	0	0	0	0	0	0	1	0	0	0	1	incorrect	3646	
5	1	dummy	-²sol	
5	1	dummy	groupe	
6	1	IS  (3 : 1) - 2 = 3   ?, prix	0	0	0	0	0	0	0	0	0	0	0	0	0	0	0	0	0	0	0	1	0	0	1	incorrect	3875	
7	1	IS  (10 : 2) + 4 = 3   ?, pain	0	0	0	0	0	0	0	0	0	0	0	0	0	0	0	0	0	0	0	0	1	0	1	incorrect	2924	
8	1	dummy	²prix	
8	1	dummy	pain	
9	1	IS  (5 : 1) + 4 = 9   ?, argent	1	0	0	0	0	0	0	0	0	0	0	0	0	0	0	0	0	0	0	0	0	1	0	correct	3087	
9	2	IS  (9 x 2) - 3 = 16   ?, lait	1	0	0	0	0	0	0	0	0	0	0	0	0	0	0	0	0	0	0	0	0	0	1	incorrect	7511	
9	3	IS  (8 : 2) + 4 = 2   ?, bois	1	0	0	0	0	0	0	0	0	0	0	0	0	0	0	0	0	0	0	0	0	0	1	incorrect	4956	
10	1	dummy	argent	
10	1	dummy	lait	
10	1	dummy	bois	
11	1	IS  (9 : 3) - 2 = 1   ?, rêve	0	1	0	0	0	0	0	0	0	0	0	0	0	0	0	0	0	0	0	0	0	1	0	incorrect	5605	
11	2	IS  (8 x 1) + 5 = 13   ?, coffre	0	1	0	0	0	0	0	0	0	0	0	0	0	0	0	0	0	0	0	0	0	1	0	correct	5399	
11	3	IS  (8 : 8) + 1 = 2   ?, air	0	1	0	0	0	0	0	0	0	0	0	0	0	0	0	0	0	0	0	0	0	1	0	correct	2650	
11	4	IS  (8 x 1) + 8 = 16   ?, coeur	0	1	0	0	0	0	0	0	0	0	0	0	0	0	0	0	0	0	0	0	0	1	0	correct	6661	
11	5	IS  (10 : 10) - 1 = 2   ?, mot	0	1	0	0	0	0	0	0	0	0	0	0	0	0	0	0	0	0	0	0	0	0	1	incorrect	4437	
12	1	dummy	²reve	
12	1	dummy	coffre	
12	1	dummy	reve	
12	1	dummy	coeur	
12	1	dummy	mot	
13	1	IS  (9 : 1) - 7 = 4   ?, sac	0	0	1	0	0	0	0	0	0	0	0	0	0	0	0	0	0	0	0	0	0	0	1	incorrect	7435	
13	2	IS  (6 x 2) - 3 = 10   ?, bicyclette	0	0	1	0	0	0	0	0	0	0	0	0	0	0	0	0	0	0	0	0	0	0	1	incorrect	8068	
13	3	IS  (4 x 4) + 1 = 17   ?, fourchette	0	0	1	0	0	0	0	0	0	0	0	0	0	0	0	0	0	0	0	0	0	1	0	incorrect	6717	
14	1	dummy	²sac	
14	1	dummy	bicyclette	
14	1	dummy	fourchette	
15	1	IS  (3 : 1) + 3 = 6   ?, fête	0	0	0	1	0	0	0	0	0	0	0	0	0	0	0	0	0	0	0	0	0	1	0	correct	2785	
15	2	IS  (8 x 4) + 2 = 34   ?, tissu	0	0	0	1	0	0	0	0	0	0	0	0	0	0	0	0	0	0	0	0	0	1	0	incorrect	5781	
16	1	dummy	fete	
16	1	dummy	tissu	
17	1	IS  (10 x 2) + 3 = 23   ?, verre	0	0	0	0	1	0	0	0	0	0	0	0	0	0	0	0	0	0	0	0	0	1	0	correct	3172	
17	2	IS  (4 : 1) + 1 = 4   ?, voie	0	0	0	0	1	0	0	0	0	0	0	0	0	0	0	0	0	0	0	0	0	0	1	incorrect	2009	
17	3	IS  (4 : 1) - 4 = 2   ?, cri	0	0	0	0	1	0	0	0	0	0	0	0	0	0	0	0	0	0	0	0	0	0	1	incorrect	3005	
17	4	IS  (7 x 2) - 3 = 11   ?, maison	0	0	0	0	1	0	0	0	0	0	0	0	0	0	0	0	0	0	0	0	0	1	0	incorrect	7200	
17	5	IS  (10 : 1) + 1 = 10   ?, pierre	0	0	0	0	1	0	0	0	0	0	0	0	0	0	0	0	0	0	0	0	0	0	1	incorrect	7363	
18	1	dummy	-²²²verre	
18	1	dummy	voix	
18	1	dummy	cris	
18	1	dummy	maison	
18	1	dummy	pierre	
19	1	IS  (9 : 1) - 5 = 4   ?, plan	0	0	0	0	0	1	0	0	0	0	0	0	0	0	0	0	0	0	0	0	0	1	0	correct	4642	
19	2	IS  (5 x 2) + 1 = 6   ?, montre	0	0	0	0	0	1	0	0	0	0	0	0	0	0	0	0	0	0	0	0	0	0	1	incorrect	1947	
19	3	IS  (3 x 2) + 1 = 6   ?, enfant	0	0	0	0	0	1	0	0	0	0	0	0	0	0	0	0	0	0	0	0	0	0	1	correct	4250	
19	4	IS  (9 x 2) + 1 = 18   ?, escalier	0	0	0	0	0	1	0	0	0	0	0	0	0	0	0	0	0	0	0	0	0	0	1	incorrect	3172	
19	5	IS  (9 x 1) - 1 = 8   ?, tête	0	0	0	0	0	1	0	0	0	0	0	0	0	0	0	0	0	0	0	0	0	1	0	correct	5073	
20	1	dummy	-plan	
20	1	dummy	montre	
20	1	dummy	enfant	
20	1	dummy	escalier	
20	1	dummy	tete	
21	1	IS  (6 x 1) - 4 = 1   ?, montagne	0	0	0	0	0	0	1	0	0	0	0	0	0	0	0	0	0	0	0	0	0	0	1	incorrect	13403	
21	2	IS  (4 : 2) + 1 = 6   ?, serrure	0	0	0	0	0	0	1	0	0	0	0	0	0	0	0	0	0	0	0	0	0	0	1	incorrect	3019	
21	3	IS  (10 : 2) - 3 = 2   ?, chemise	0	0	0	0	0	0	1	0	0	0	0	0	0	0	0	0	0	0	0	0	0	1	0	correct	3470	
21	4	IS  (4 x 2) + 1 = 9   ?, bouteille	0	0	0	0	0	0	1	0	0	0	0	0	0	0	0	0	0	0	0	0	0	1	0	correct	4678	
21	5	IS  (9 : 3) - 1 = 2   ?, homme	0	0	0	0	0	0	1	0	0	0	0	0	0	0	0	0	0	0	0	0	0	1	0	incorrect	5678	
21	6	IS  (10 : 2) + 4 = 9   ?, sang	0	0	0	0	0	0	1	0	0	0	0	0	0	0	0	0	0	0	0	0	0	1	0	incorrect	4406	
22	1	dummy	montagne	
22	1	dummy	serrure	
22	1	dummy	chemise	
22	1	dummy	bouteille	
22	1	dummy	g	
22	1	dummy	homme	
23	1	IS  (8 : 1) - 6 = 4   ?, film	0	0	0	0	0	0	0	1	0	0	0	0	0	0	0	0	0	0	0	0	0	0	1	incorrect	8198	
23	2	IS  (6 : 3) + 2 = 4   ?, chaise	0	0	0	0	0	0	0	1	0	0	0	0	0	0	0	0	0	0	0	0	0	1	0	incorrect	2872	
23	3	IS  (9 : 3) - 2 = 2   ?, carte	0	0	0	0	0	0	0	1	0	0	0	0	0	0	0	0	0	0	0	0	0	0	1	incorrect	5337	
23	4	IS  (9 x 3) - 2 = 25   ?, cheval	0	0	0	0	0	0	0	1	0	0	0	0	0	0	0	0	0	0	0	0	0	1	0	correct	6038	
24	1	dummy	²film	
24	1	dummy	chaise	
24	1	dummy	carte	
24	1	dummy	cheval	
25	1	IS  (5 : 5) + 1 = 2   ?, robinet	0	0	0	0	0	0	0	0	1	0	0	0	0	0	0	0	0	0	0	0	0	1	0	correct	3921	
25	2	IS  (3 x 3) - 1 = 8   ?, assiette	0	0	0	0	0	0	0	0	1	0	0	0	0	0	0	0	0	0	0	0	0	1	0	incorrect	2623	
25	3	IS  (3 x 1) + 2 = 2   ?, village	0	0	0	0	0	0	0	0	1	0	0	0	0	0	0	0	0	0	0	0	0	0	1	incorrect	2618	
25	4	IS  (6 : 2) - 2 = 2   ?, bouton	0	0	0	0	0	0	0	0	1	0	0	0	0	0	0	0	0	0	0	0	0	0	1	incorrect	3437	
25	5	IS  (8 x 4) - 2 = 32   ?, rouleau	0	0	0	0	0	0	0	0	1	0	0	0	0	0	0	0	0	0	0	0	0	0	1	incorrect	2775	
25	6	IS  (7 x 2) - 1 = 14   ?, classe	0	0	0	0	0	0	0	0	1	0	0	0	0	0	0	0	0	0	0	0	0	0	1	incorrect	4420	
26	1	dummy	²robinet	
26	1	dummy	assiete	
26	1	dummy	village	
26	1	dummy	bouton	
26	1	dummy	rouleau	
26	1	dummy	classe	
27	1	IS  (7 x 1) + 6 = 13   ?, point	0	0	0	0	0	0	0	0	0	1	0	0	0	0	0	0	0	0	0	0	0	1	0	incorrect	7706	
27	2	IS  (6 : 2) - 2 = 1   ?, travail	0	0	0	0	0	0	0	0	0	1	0	0	0	0	0	0	0	0	0	0	0	1	0	correct	3992	
28	1	dummy	point	
28	1	dummy	travail	
29	1	IS  (9 x 1) + 9 = 1   ?, chien	0	0	0	0	0	0	0	0	0	0	1	0	0	0	0	0	0	0	0	0	0	0	1	incorrect	3989	
29	2	IS  (7 : 1) + 2 = 7   ?, voeu	0	0	0	0	0	0	0	0	0	0	1	0	0	0	0	0	0	0	0	0	0	0	1	incorrect	5265	
29	3	IS  (10 : 2) - 4 = 3   ?, moustache	0	0	0	0	0	0	0	0	0	0	1	0	0	0	0	0	0	0	0	0	0	0	1	incorrect	5490	
29	4	IS  (6 : 2) + 1 = 4   ?, banque	0	0	0	0	0	0	0	0	0	0	1	0	0	0	0	0	0	0	0	0	0	1	0	correct	3041	
30	1	dummy	chien	
30	1	dummy	voeux	
30	1	dummy	moustache	
30	1	dummy	banque	
31	1	IS  (10 : 1) + 3 = 13   ?, mur	0	0	0	0	0	0	0	0	0	0	0	1	0	0	0	0	0	0	0	0	0	1	0	correct	6480	
31	2	IS  (8 : 4) - 1 = 1   ?, étable	0	0	0	0	0	0	0	0	0	0	0	1	0	0	0	0	0	0	0	0	0	1	0	correct	3976	
31	3	IS  (2 x 1) - 1 = 1   ?, toit	0	0	0	0	0	0	0	0	0	0	0	1	0	0	0	0	0	0	0	0	0	1	0	correct	2140	
32	1	dummy	--mur	
32	1	dummy	etable	
32	1	dummy	toit	
33	1	IS  (10 : 2) + 4 = 8   ?, herbe	0	0	0	0	0	0	0	0	0	0	0	0	1	0	0	0	0	0	0	0	0	0	1	incorrect	3369	
33	2	IS  (7 x 7) + 1 = 49   ?, nappe	0	0	0	0	0	0	0	0	0	0	0	0	1	0	0	0	0	0	0	0	0	0	1	incorrect	2390	
34	1	dummy	herbe	
34	1	dummy	nappe	
35	1	IS  (9 x 3) - 3 = 24   ?, poupée	0	0	0	0	0	0	0	0	0	0	0	0	0	1	0	0	0	0	0	0	0	1	0	correct	4790	
35	2	IS  (10 x 2) - 6 = 12   ?, lettre	0	0	0	0	0	0	0	0	0	0	0	0	0	1	0	0	0	0	0	0	0	0	1	incorrect	3586	
35	3	IS  (9 : 1) + 8 = 18   ?, feuille	0	0	0	0	0	0	0	0	0	0	0	0	0	1	0	0	0	0	0	0	0	0	1	incorrect	3894	
35	4	IS  (6 x 3) - 2 = 11   ?, peinture	0	0	0	0	0	0	0	0	0	0	0	0	0	1	0	0	0	0	0	0	0	0	1	incorrect	4814	
35	5	IS  (5 x 1) - 1 = 5   ?, église	0	0	0	0	0	0	0	0	0	0	0	0	0	1	0	0	0	0	0	0	0	0	1	incorrect	2665	
35	6	IS  (6 x 4) + 1 = 25   ?, femme	0	0	0	0	0	0	0	0	0	0	0	0	0	1	0	0	0	0	0	0	0	1	0	correct	1938	
36	1	dummy	poupee	
36	1	dummy	lettre	
36	1	dummy	feuille	
36	1	dummy	peinture	
36	1	dummy	femme	
36	1	dummy	 	
37	1	IS  (6 x 2) - 2 = 10   ?, voix	0	0	0	0	0	0	0	0	0	0	0	0	0	0	1	0	0	0	0	0	0	1	0	incorrect	4060	
37	2	IS  (7 : 1) + 6 = 12   ?, bras	0	0	0	0	0	0	0	0	0	0	0	0	0	0	1	0	0	0	0	0	0	0	1	incorrect	7749	
37	3	IS  (10 : 1) - 1 = 9   ?, nuit	0	0	0	0	0	0	0	0	0	0	0	0	0	0	1	0	0	0	0	0	0	1	0	correct	2529	
37	4	IS  (8 : 2) - 1 = 3   ?, guide	0	0	0	0	0	0	0	0	0	0	0	0	0	0	1	0	0	0	0	0	0	1	0	correct	5264	
38	1	dummy	voie	
38	1	dummy	bois	
38	1	dummy	nuit	
38	1	dummy	guide	
