block number	trial number	trial contents	set1	set2	set3	set4	set5	set6	set7	set8	set9	set10	set11	set12	set13	set14	set15	set_Ex1	set_Ex2	set_Ex3	set_Ex4	set_Ex5	set_Ex6	correct_operation	incorrect_operation	response	RT	
1	1	IS  (5 x 1) - 1 = 4   ?, balle	0	0	0	0	0	0	0	0	0	0	0	0	0	0	0	1	0	0	0	0	0	1	0	correct	7405	
2	1	IS  (2 x 3) + 1 = 4   ?, bouche	0	0	0	0	0	0	0	0	0	0	0	0	0	0	0	0	1	0	0	0	0	0	1	incorrect	6374	
3	1	IS  (6 x 3) + 2 = 17   ?, sol	0	0	0	0	0	0	0	0	0	0	0	0	0	0	0	0	0	1	0	0	0	0	1	incorrect	5857	
4	1	IS  (2 x 2) + 1 = 4   ?, groupe	0	0	0	0	0	0	0	0	0	0	0	0	0	0	0	0	0	0	1	0	0	0	1	incorrect	3641	
5	1	dummy	-	
5	1	dummy	²²sol	
6	1	IS  (3 : 1) - 2 = 3   ?, prix	0	0	0	0	0	0	0	0	0	0	0	0	0	0	0	0	0	0	0	1	0	0	1	incorrect	7338	
7	1	IS  (10 : 2) + 4 = 3   ?, pain	0	0	0	0	0	0	0	0	0	0	0	0	0	0	0	0	0	0	0	0	1	0	1	incorrect	2894	
8	1	dummy	²prix	
8	1	dummy	pain	
9	1	IS  (8 : 2) + 4 = 2   ?, argent	1	0	0	0	0	0	0	0	0	0	0	0	0	0	0	0	0	0	0	0	0	0	1	incorrect	5686	
9	2	IS  (9 x 2) - 3 = 16   ?, lait	1	0	0	0	0	0	0	0	0	0	0	0	0	0	0	0	0	0	0	0	0	0	1	incorrect	6357	
9	3	IS  (5 : 1) + 4 = 9   ?, bois	1	0	0	0	0	0	0	0	0	0	0	0	0	0	0	0	0	0	0	0	0	1	0	correct	2801	
10	1	dummy	²argent	
10	1	dummy	lait	
10	1	dummy	bois	
11	1	IS  (8 x 1) + 5 = 13   ?, coffre	0	1	0	0	0	0	0	0	0	0	0	0	0	0	0	0	0	0	0	0	0	1	0	correct	4023	
11	2	IS  (9 : 3) - 2 = 1   ?, mot	0	1	0	0	0	0	0	0	0	0	0	0	0	0	0	0	0	0	0	0	0	1	0	correct	2314	
11	3	IS  (10 : 10) - 1 = 2   ?, coeur	0	1	0	0	0	0	0	0	0	0	0	0	0	0	0	0	0	0	0	0	0	0	1	incorrect	6266	
11	4	IS  (8 x 1) + 8 = 16   ?, rêve	0	1	0	0	0	0	0	0	0	0	0	0	0	0	0	0	0	0	0	0	0	1	0	correct	4266	
11	5	IS  (8 : 8) + 1 = 2   ?, air	0	1	0	0	0	0	0	0	0	0	0	0	0	0	0	0	0	0	0	0	0	1	0	correct	6019	
12	1	dummy	-coffre	
12	1	dummy	mot	
12	1	dummy	coeur	
12	1	dummy	reve	
12	1	dummy	 	
13	1	IS  (9 : 1) - 7 = 4   ?, bicyclette	0	0	1	0	0	0	0	0	0	0	0	0	0	0	0	0	0	0	0	0	0	0	1	incorrect	7102	
13	2	IS  (4 x 4) + 1 = 17   ?, fourchette	0	0	1	0	0	0	0	0	0	0	0	0	0	0	0	0	0	0	0	0	0	1	0	correct	2956	
13	3	IS  (6 x 2) - 3 = 10   ?, sac	0	0	1	0	0	0	0	0	0	0	0	0	0	0	0	0	0	0	0	0	0	0	1	incorrect	2858	
14	1	dummy	²-bicyclette	
14	1	dummy	fourchette	
14	1	dummy	sac	
15	1	IS  (3 : 1) + 3 = 6   ?, fête	0	0	0	1	0	0	0	0	0	0	0	0	0	0	0	0	0	0	0	0	0	1	0	correct	2900	
15	2	IS  (8 x 4) + 2 = 34   ?, tissu	0	0	0	1	0	0	0	0	0	0	0	0	0	0	0	0	0	0	0	0	0	1	0	correct	3405	
16	1	dummy	fete	
16	1	dummy	tissu	
17	1	IS  (7 x 2) - 3 = 11   ?, maison	0	0	0	0	1	0	0	0	0	0	0	0	0	0	0	0	0	0	0	0	0	1	0	correct	2915	
17	2	IS  (10 x 2) + 3 = 23   ?, verre	0	0	0	0	1	0	0	0	0	0	0	0	0	0	0	0	0	0	0	0	0	1	0	correct	2218	
17	3	IS  (4 : 1) + 1 = 4   ?, pierre	0	0	0	0	1	0	0	0	0	0	0	0	0	0	0	0	0	0	0	0	0	0	1	incorrect	4085	
17	4	IS  (4 : 1) - 4 = 2   ?, cri	0	0	0	0	1	0	0	0	0	0	0	0	0	0	0	0	0	0	0	0	0	0	1	correct	3197	
17	5	IS  (10 : 1) + 1 = 10   ?, voie	0	0	0	0	1	0	0	0	0	0	0	0	0	0	0	0	0	0	0	0	0	0	1	incorrect	4569	
18	1	dummy	maison	
18	1	dummy	verre	
18	1	dummy	pierre	
18	1	dummy	cri	
18	1	dummy	 	
19	1	IS  (9 : 1) - 5 = 4   ?, enfant	0	0	0	0	0	1	0	0	0	0	0	0	0	0	0	0	0	0	0	0	0	1	0	correct	6344	
19	2	IS  (5 x 2) + 1 = 6   ?, plan	0	0	0	0	0	1	0	0	0	0	0	0	0	0	0	0	0	0	0	0	0	0	1	incorrect	3556	
19	3	IS  (9 x 2) + 1 = 18   ?, tête	0	0	0	0	0	1	0	0	0	0	0	0	0	0	0	0	0	0	0	0	0	0	1	incorrect	2994	
19	4	IS  (3 x 2) + 1 = 6   ?, montre	0	0	0	0	0	1	0	0	0	0	0	0	0	0	0	0	0	0	0	0	0	0	1	incorrect	4998	
19	5	IS  (9 x 1) - 1 = 8   ?, escalier	0	0	0	0	0	1	0	0	0	0	0	0	0	0	0	0	0	0	0	0	0	1	0	correct	6129	
20	1	dummy	²²enfant	
20	1	dummy	plan	
20	1	dummy	tete	
20	1	dummy	montre	
20	1	dummy	escalier	
21	1	IS  (4 x 2) + 1 = 9   ?, bouteille	0	0	0	0	0	0	1	0	0	0	0	0	0	0	0	0	0	0	0	0	0	1	0	correct	1976	
21	2	IS  (10 : 2) + 4 = 9   ?, chemise	0	0	0	0	0	0	1	0	0	0	0	0	0	0	0	0	0	0	0	0	0	1	0	correct	2445	
21	3	IS  (6 x 1) - 4 = 1   ?, sang	0	0	0	0	0	0	1	0	0	0	0	0	0	0	0	0	0	0	0	0	0	0	1	incorrect	3208	
21	4	IS  (4 : 2) + 1 = 6   ?, montagne	0	0	0	0	0	0	1	0	0	0	0	0	0	0	0	0	0	0	0	0	0	0	1	incorrect	4923	
21	5	IS  (9 : 3) - 1 = 2   ?, serrure	0	0	0	0	0	0	1	0	0	0	0	0	0	0	0	0	0	0	0	0	0	1	0	correct	3649	
21	6	IS  (10 : 2) - 3 = 2   ?, homme	0	0	0	0	0	0	1	0	0	0	0	0	0	0	0	0	0	0	0	0	0	1	0	correct	5699	
22	1	dummy	bouteille	
22	1	dummy	sang	
22	1	dummy	montagne	
22	1	dummy	chemise	
22	1	dummy	serrure	
22	1	dummy	 	
23	1	IS  (8 : 1) - 6 = 4   ?, chaise	0	0	0	0	0	0	0	1	0	0	0	0	0	0	0	0	0	0	0	0	0	0	1	incorrect	23564	
23	2	IS  (6 : 3) + 2 = 4   ?, film	0	0	0	0	0	0	0	1	0	0	0	0	0	0	0	0	0	0	0	0	0	1	0	correct	1953	
23	3	IS  (9 : 3) - 2 = 2   ?, cheval	0	0	0	0	0	0	0	1	0	0	0	0	0	0	0	0	0	0	0	0	0	0	1	incorrect	2927	
23	4	IS  (9 x 3) - 2 = 25   ?, carte	0	0	0	0	0	0	0	1	0	0	0	0	0	0	0	0	0	0	0	0	0	1	0	correct	3678	
24	1	dummy	²--chaise	
24	1	dummy	film	
24	1	dummy	cheval	
24	1	dummy	carte	
25	1	IS  (7 x 2) - 1 = 14   ?, robinet	0	0	0	0	0	0	0	0	1	0	0	0	0	0	0	0	0	0	0	0	0	0	1	incorrect	2888	
25	2	IS  (5 : 5) + 1 = 2   ?, classe	0	0	0	0	0	0	0	0	1	0	0	0	0	0	0	0	0	0	0	0	0	1	0	correct	5153	
25	3	IS  (3 x 1) + 2 = 2   ?, assiette	0	0	0	0	0	0	0	0	1	0	0	0	0	0	0	0	0	0	0	0	0	0	1	incorrect	3445	
25	4	IS  (6 : 2) - 2 = 2   ?, village	0	0	0	0	0	0	0	0	1	0	0	0	0	0	0	0	0	0	0	0	0	0	1	incorrect	6655	
25	5	IS  (8 x 4) - 2 = 32   ?, bouton	0	0	0	0	0	0	0	0	1	0	0	0	0	0	0	0	0	0	0	0	0	0	1	incorrect	8727	
25	6	IS  (3 x 3) - 1 = 8   ?, rouleau	0	0	0	0	0	0	0	0	1	0	0	0	0	0	0	0	0	0	0	0	0	1	0	correct	8195	
26	1	dummy	robinet	
26	1	dummy	classe	
26	1	dummy	village	
26	1	dummy	bouton	
26	1	dummy	 	
26	1	dummy	 	
27	1	IS  (7 x 1) + 6 = 13   ?, travail	0	0	0	0	0	0	0	0	0	1	0	0	0	0	0	0	0	0	0	0	0	1	0	correct	6434	
27	2	IS  (6 : 2) - 2 = 1   ?, point	0	0	0	0	0	0	0	0	0	1	0	0	0	0	0	0	0	0	0	0	0	1	0	correct	4315	
28	1	dummy	--travail	
28	1	dummy	point	
29	1	IS  (7 : 1) + 2 = 7   ?, chien	0	0	0	0	0	0	0	0	0	0	1	0	0	0	0	0	0	0	0	0	0	0	1	incorrect	3625	
29	2	IS  (6 : 2) + 1 = 4   ?, banque	0	0	0	0	0	0	0	0	0	0	1	0	0	0	0	0	0	0	0	0	0	1	0	correct	3947	
29	3	IS  (9 x 1) + 9 = 1   ?, moustache	0	0	0	0	0	0	0	0	0	0	1	0	0	0	0	0	0	0	0	0	0	0	1	incorrect	2857	
29	4	IS  (10 : 2) - 4 = 3   ?, voeu	0	0	0	0	0	0	0	0	0	0	1	0	0	0	0	0	0	0	0	0	0	0	1	incorrect	4011	
30	1	dummy	²chien	
30	1	dummy	banque	
30	1	dummy	moustache	
30	1	dummy	voeu	
31	1	IS  (10 : 1) + 3 = 13   ?, toit	0	0	0	0	0	0	0	0	0	0	0	1	0	0	0	0	0	0	0	0	0	1	0	correct	2436	
31	2	IS  (2 x 1) - 1 = 1   ?, mur	0	0	0	0	0	0	0	0	0	0	0	1	0	0	0	0	0	0	0	0	0	1	0	correct	3895	
31	3	IS  (8 : 4) - 1 = 1   ?, étable	0	0	0	0	0	0	0	0	0	0	0	1	0	0	0	0	0	0	0	0	0	1	0	correct	3071	
32	1	dummy	--toit	
32	1	dummy	mur	
32	1	dummy	etable	
33	1	IS  (7 x 7) + 1 = 49   ?, nappe	0	0	0	0	0	0	0	0	0	0	0	0	1	0	0	0	0	0	0	0	0	0	1	incorrect	3568	
33	2	IS  (10 : 2) + 4 = 8   ?, herbe	0	0	0	0	0	0	0	0	0	0	0	0	1	0	0	0	0	0	0	0	0	0	1	incorrect	2845	
34	1	dummy	nappe	
34	1	dummy	herbe	
35	1	IS  (9 : 1) + 8 = 18   ?, femme	0	0	0	0	0	0	0	0	0	0	0	0	0	1	0	0	0	0	0	0	0	0	1	incorrect	5328	
35	2	IS  (9 x 3) - 3 = 24   ?, lettre	0	0	0	0	0	0	0	0	0	0	0	0	0	1	0	0	0	0	0	0	0	1	0	correct	6517	
35	3	IS  (10 x 2) - 6 = 12   ?, église	0	0	0	0	0	0	0	0	0	0	0	0	0	1	0	0	0	0	0	0	0	0	1	incorrect	4019	
35	4	IS  (6 x 4) + 1 = 25   ?, feuille	0	0	0	0	0	0	0	0	0	0	0	0	0	1	0	0	0	0	0	0	0	1	0	correct	2534	
35	5	IS  (5 x 1) - 1 = 5   ?, poupée	0	0	0	0	0	0	0	0	0	0	0	0	0	1	0	0	0	0	0	0	0	0	1	incorrect	4861	
35	6	IS  (6 x 3) - 2 = 11   ?, peinture	0	0	0	0	0	0	0	0	0	0	0	0	0	1	0	0	0	0	0	0	0	0	1	incorrect	7134	
36	1	dummy	²²femme	
36	1	dummy	lettre	
36	1	dummy	eglise	
36	1	dummy	feuille	
36	1	dummy	poupee	
36	1	dummy	 	
37	1	IS  (8 : 2) - 1 = 3   ?, bras	0	0	0	0	0	0	0	0	0	0	0	0	0	0	1	0	0	0	0	0	0	1	0	correct	4335	
37	2	IS  (6 x 2) - 2 = 10   ?, nuit	0	0	0	0	0	0	0	0	0	0	0	0	0	0	1	0	0	0	0	0	0	1	0	correct	5229	
37	3	IS  (10 : 1) - 1 = 9   ?, guide	0	0	0	0	0	0	0	0	0	0	0	0	0	0	1	0	0	0	0	0	0	1	0	correct	2847	
37	4	IS  (7 : 1) + 6 = 12   ?, voix	0	0	0	0	0	0	0	0	0	0	0	0	0	0	1	0	0	0	0	0	0	0	1	incorrect	4409	
38	1	dummy	---bras	
38	1	dummy	nuit	
38	1	dummy	guide	
38	1	dummy	voix	
