block number	trial number	trial contents	set1	set2	set3	set4	set5	set6	set7	set8	set9	set10	set11	set12	set13	set14	set15	set_Ex1	set_Ex2	set_Ex3	set_Ex4	set_Ex5	set_Ex6	correct_operation	incorrect_operation	response	RT	
1	1	IS  (5 x 1) - 1 = 4   ?, balle	0	0	0	0	0	0	0	0	0	0	0	0	0	0	0	1	0	0	0	0	0	1	0	correct	6741	
2	1	IS  (2 x 3) + 1 = 4   ?, bouche	0	0	0	0	0	0	0	0	0	0	0	0	0	0	0	0	1	0	0	0	0	0	1	incorrect	5602	
3	1	IS  (6 x 3) + 2 = 17   ?, sol	0	0	0	0	0	0	0	0	0	0	0	0	0	0	0	0	0	1	0	0	0	0	1	incorrect	4893	
4	1	IS  (2 x 2) + 1 = 4   ?, groupe	0	0	0	0	0	0	0	0	0	0	0	0	0	0	0	0	0	0	1	0	0	0	1	incorrect	4068	
5	1	dummy	-sol	
5	1	dummy	bouche	
6	1	IS  (3 : 1) - 2 = 3   ?, prix	0	0	0	0	0	0	0	0	0	0	0	0	0	0	0	0	0	0	0	1	0	0	1	incorrect	7756	
7	1	IS  (10 : 2) + 4 = 3   ?, pain	0	0	0	0	0	0	0	0	0	0	0	0	0	0	0	0	0	0	0	0	1	0	1	incorrect	3239	
8	1	dummy	²prix	
8	1	dummy	pain	
9	1	IS  (8 : 2) + 4 = 2   ?, lait	1	0	0	0	0	0	0	0	0	0	0	0	0	0	0	0	0	0	0	0	0	0	1	incorrect	3786	
9	2	IS  (5 : 1) + 4 = 9   ?, bois	1	0	0	0	0	0	0	0	0	0	0	0	0	0	0	0	0	0	0	0	0	1	0	correct	4836	
9	3	IS  (9 x 2) - 3 = 16   ?, argent	1	0	0	0	0	0	0	0	0	0	0	0	0	0	0	0	0	0	0	0	0	0	1	incorrect	6389	
10	1	dummy	²lait	
10	1	dummy	bois	
10	1	dummy	argent	
11	1	IS  (8 x 1) + 5 = 13   ?, mot	0	1	0	0	0	0	0	0	0	0	0	0	0	0	0	0	0	0	0	0	0	1	0	correct	6418	
11	2	IS  (8 x 1) + 8 = 16   ?, rêve	0	1	0	0	0	0	0	0	0	0	0	0	0	0	0	0	0	0	0	0	0	1	0	correct	5668	
11	3	IS  (9 : 3) - 2 = 1   ?, coffre	0	1	0	0	0	0	0	0	0	0	0	0	0	0	0	0	0	0	0	0	0	1	0	correct	6364	
11	4	IS  (10 : 10) - 1 = 2   ?, air	0	1	0	0	0	0	0	0	0	0	0	0	0	0	0	0	0	0	0	0	0	0	1	incorrect	4192	
11	5	IS  (8 : 8) + 1 = 2   ?, coeur	0	1	0	0	0	0	0	0	0	0	0	0	0	0	0	0	0	0	0	0	0	1	0	correct	5588	
12	1	dummy	-²mot	
12	1	dummy	reve	
12	1	dummy	coffre	
12	1	dummy	air	
12	1	dummy	coeur	
13	1	IS  (6 x 2) - 3 = 10   ?, sac	0	0	1	0	0	0	0	0	0	0	0	0	0	0	0	0	0	0	0	0	0	0	1	incorrect	5611	
13	2	IS  (4 x 4) + 1 = 17   ?, fourchette	0	0	1	0	0	0	0	0	0	0	0	0	0	0	0	0	0	0	0	0	0	1	0	correct	3685	
13	3	IS  (9 : 1) - 7 = 4   ?, bicyclette	0	0	1	0	0	0	0	0	0	0	0	0	0	0	0	0	0	0	0	0	0	0	1	incorrect	6413	
14	1	dummy	²-²sac	
14	1	dummy	fourchette	
14	1	dummy	fourchette	
15	1	IS  (8 x 4) + 2 = 34   ?, tissu	0	0	0	1	0	0	0	0	0	0	0	0	0	0	0	0	0	0	0	0	0	1	0	correct	5296	
15	2	IS  (3 : 1) + 3 = 6   ?, fête	0	0	0	1	0	0	0	0	0	0	0	0	0	0	0	0	0	0	0	0	0	1	0	correct	6047	
16	1	dummy	-tissu	
16	1	dummy	fete	
17	1	IS  (4 : 1) + 1 = 4   ?, maison	0	0	0	0	1	0	0	0	0	0	0	0	0	0	0	0	0	0	0	0	0	0	1	incorrect	3678	
17	2	IS  (7 x 2) - 3 = 11   ?, voie	0	0	0	0	1	0	0	0	0	0	0	0	0	0	0	0	0	0	0	0	0	1	0	correct	5038	
17	3	IS  (4 : 1) - 4 = 2   ?, pierre	0	0	0	0	1	0	0	0	0	0	0	0	0	0	0	0	0	0	0	0	0	0	1	incorrect	4408	
17	4	IS  (10 : 1) + 1 = 10   ?, cri	0	0	0	0	1	0	0	0	0	0	0	0	0	0	0	0	0	0	0	0	0	0	1	incorrect	5714	
17	5	IS  (10 x 2) + 3 = 23   ?, verre	0	0	0	0	1	0	0	0	0	0	0	0	0	0	0	0	0	0	0	0	0	1	0	correct	5905	
18	1	dummy	²maison	
18	1	dummy	voie	
18	1	dummy	pierre	
18	1	dummy	cri	
18	1	dummy	cri	
19	1	IS  (3 x 2) + 1 = 6   ?, tête	0	0	0	0	0	1	0	0	0	0	0	0	0	0	0	0	0	0	0	0	0	0	1	incorrect	5533	
19	2	IS  (9 x 1) - 1 = 8   ?, montre	0	0	0	0	0	1	0	0	0	0	0	0	0	0	0	0	0	0	0	0	0	1	0	correct	5082	
19	3	IS  (5 x 2) + 1 = 6   ?, escalier	0	0	0	0	0	1	0	0	0	0	0	0	0	0	0	0	0	0	0	0	0	0	1	incorrect	9922	
19	4	IS  (9 x 2) + 1 = 18   ?, enfant	0	0	0	0	0	1	0	0	0	0	0	0	0	0	0	0	0	0	0	0	0	0	1	incorrect	4750	
19	5	IS  (9 : 1) - 5 = 4   ?, plan	0	0	0	0	0	1	0	0	0	0	0	0	0	0	0	0	0	0	0	0	0	1	0	correct	10612	
20	1	dummy	²tete	
20	1	dummy	montre	
20	1	dummy	escalier	
20	1	dummy	enfant	
20	1	dummy	enfant	
21	1	IS  (9 : 3) - 1 = 2   ?, bouteille	0	0	0	0	0	0	1	0	0	0	0	0	0	0	0	0	0	0	0	0	0	1	0	correct	4612	
21	2	IS  (10 : 2) + 4 = 9   ?, montagne	0	0	0	0	0	0	1	0	0	0	0	0	0	0	0	0	0	0	0	0	0	1	0	correct	5695	
21	3	IS  (4 x 2) + 1 = 9   ?, homme	0	0	0	0	0	0	1	0	0	0	0	0	0	0	0	0	0	0	0	0	0	1	0	correct	4342	
21	4	IS  (6 x 1) - 4 = 1   ?, serrure	0	0	0	0	0	0	1	0	0	0	0	0	0	0	0	0	0	0	0	0	0	0	1	incorrect	6268	
21	5	IS  (4 : 2) + 1 = 6   ?, sang	0	0	0	0	0	0	1	0	0	0	0	0	0	0	0	0	0	0	0	0	0	0	1	incorrect	9300	
21	6	IS  (10 : 2) - 3 = 2   ?, chemise	0	0	0	0	0	0	1	0	0	0	0	0	0	0	0	0	0	0	0	0	0	1	0	correct	19761	
22	1	dummy	-bouteille	
22	1	dummy	montagne	
22	1	dummy	serrure	
22	1	dummy	sang	
22	1	dummy	chemise	
22	1	dummy	serrure	
23	1	IS  (9 : 3) - 2 = 2   ?, carte	0	0	0	0	0	0	0	1	0	0	0	0	0	0	0	0	0	0	0	0	0	0	1	incorrect	8895	
23	2	IS  (9 x 3) - 2 = 25   ?, chaise	0	0	0	0	0	0	0	1	0	0	0	0	0	0	0	0	0	0	0	0	0	1	0	incorrect	5989	
23	3	IS  (8 : 1) - 6 = 4   ?, film	0	0	0	0	0	0	0	1	0	0	0	0	0	0	0	0	0	0	0	0	0	0	1	incorrect	3712	
23	4	IS  (6 : 3) + 2 = 4   ?, cheval	0	0	0	0	0	0	0	1	0	0	0	0	0	0	0	0	0	0	0	0	0	1	0	correct	7191	
24	1	dummy	²²carte	
24	1	dummy	chaise	
24	1	dummy	film	
24	1	dummy	cheval	
25	1	IS  (8 x 4) - 2 = 32   ?, classe	0	0	0	0	0	0	0	0	1	0	0	0	0	0	0	0	0	0	0	0	0	0	1	incorrect	8512	
25	2	IS  (6 : 2) - 2 = 2   ?, bouton	0	0	0	0	0	0	0	0	1	0	0	0	0	0	0	0	0	0	0	0	0	0	1	incorrect	4453	
25	3	IS  (3 x 3) - 1 = 8   ?, assiette	0	0	0	0	0	0	0	0	1	0	0	0	0	0	0	0	0	0	0	0	0	1	0	correct	3398	
25	4	IS  (5 : 5) + 1 = 2   ?, village	0	0	0	0	0	0	0	0	1	0	0	0	0	0	0	0	0	0	0	0	0	1	0	correct	4098	
25	5	IS  (3 x 1) + 2 = 2   ?, rouleau	0	0	0	0	0	0	0	0	1	0	0	0	0	0	0	0	0	0	0	0	0	0	1	incorrect	11434	
25	6	IS  (7 x 2) - 1 = 14   ?, robinet	0	0	0	0	0	0	0	0	1	0	0	0	0	0	0	0	0	0	0	0	0	0	1	incorrect	10729	
26	1	dummy	²²--classe	
26	1	dummy	bouteau	
26	1	dummy	assiette	
26	1	dummy	rouleau	
26	1	dummy	village	
26	1	dummy	village	
27	1	IS  (6 : 2) - 2 = 1   ?, travail	0	0	0	0	0	0	0	0	0	1	0	0	0	0	0	0	0	0	0	0	0	1	0	correct	4474	
27	2	IS  (7 x 1) + 6 = 13   ?, point	0	0	0	0	0	0	0	0	0	1	0	0	0	0	0	0	0	0	0	0	0	1	0	correct	6418	
28	1	dummy	travail	
28	1	dummy	point	
29	1	IS  (7 : 1) + 2 = 7   ?, chien	0	0	0	0	0	0	0	0	0	0	1	0	0	0	0	0	0	0	0	0	0	0	1	incorrect	4697	
29	2	IS  (10 : 2) - 4 = 3   ?, moustache	0	0	0	0	0	0	0	0	0	0	1	0	0	0	0	0	0	0	0	0	0	0	1	incorrect	4440	
29	3	IS  (6 : 2) + 1 = 4   ?, voeu	0	0	0	0	0	0	0	0	0	0	1	0	0	0	0	0	0	0	0	0	0	1	0	correct	6602	
29	4	IS  (9 x 1) + 9 = 1   ?, banque	0	0	0	0	0	0	0	0	0	0	1	0	0	0	0	0	0	0	0	0	0	0	1	incorrect	6866	
30	1	dummy	²-²chien	
30	1	dummy	montagne	
30	1	dummy	voeu	
30	1	dummy	banque	
31	1	IS  (10 : 1) + 3 = 13   ?, toit	0	0	0	0	0	0	0	0	0	0	0	1	0	0	0	0	0	0	0	0	0	1	0	correct	7072	
31	2	IS  (2 x 1) - 1 = 1   ?, étable	0	0	0	0	0	0	0	0	0	0	0	1	0	0	0	0	0	0	0	0	0	1	0	correct	4071	
31	3	IS  (8 : 4) - 1 = 1   ?, mur	0	0	0	0	0	0	0	0	0	0	0	1	0	0	0	0	0	0	0	0	0	1	0	correct	3800	
32	1	dummy	--toit	
32	1	dummy	etable	
32	1	dummy	maison	
33	1	IS  (10 : 2) + 4 = 8   ?, herbe	0	0	0	0	0	0	0	0	0	0	0	0	1	0	0	0	0	0	0	0	0	0	1	incorrect	7659	
33	2	IS  (7 x 7) + 1 = 49   ?, nappe	0	0	0	0	0	0	0	0	0	0	0	0	1	0	0	0	0	0	0	0	0	0	1	incorrect	5346	
34	1	dummy	²herbe	
34	1	dummy	nappe	
35	1	IS  (10 x 2) - 6 = 12   ?, femme	0	0	0	0	0	0	0	0	0	0	0	0	0	1	0	0	0	0	0	0	0	0	1	correct	7217	
35	2	IS  (9 x 3) - 3 = 24   ?, poupée	0	0	0	0	0	0	0	0	0	0	0	0	0	1	0	0	0	0	0	0	0	1	0	correct	13050	
35	3	IS  (5 x 1) - 1 = 5   ?, lettre	0	0	0	0	0	0	0	0	0	0	0	0	0	1	0	0	0	0	0	0	0	0	1	incorrect	4240	
35	4	IS  (6 x 3) - 2 = 11   ?, peinture	0	0	0	0	0	0	0	0	0	0	0	0	0	1	0	0	0	0	0	0	0	0	1	incorrect	22114	
35	5	IS  (9 : 1) + 8 = 18   ?, église	0	0	0	0	0	0	0	0	0	0	0	0	0	1	0	0	0	0	0	0	0	0	1	incorrect	9385	
35	6	IS  (6 x 4) + 1 = 25   ?, feuille	0	0	0	0	0	0	0	0	0	0	0	0	0	1	0	0	0	0	0	0	0	1	0	correct	14891	
36	1	dummy	--herbe	
36	1	dummy	poupée	
36	1	dummy	lettre	
36	1	dummy	peinture	
36	1	dummy	eglise	
36	1	dummy	eglise	
37	1	IS  (10 : 1) - 1 = 9   ?, voix	0	0	0	0	0	0	0	0	0	0	0	0	0	0	1	0	0	0	0	0	0	1	0	correct	4219	
37	2	IS  (6 x 2) - 2 = 10   ?, nuit	0	0	0	0	0	0	0	0	0	0	0	0	0	0	1	0	0	0	0	0	0	1	0	correct	5453	
37	3	IS  (7 : 1) + 6 = 12   ?, bras	0	0	0	0	0	0	0	0	0	0	0	0	0	0	1	0	0	0	0	0	0	0	1	incorrect	5174	
37	4	IS  (8 : 2) - 1 = 3   ?, guide	0	0	0	0	0	0	0	0	0	0	0	0	0	0	1	0	0	0	0	0	0	1	0	correct	4210	
38	1	dummy	-voix	
38	1	dummy	nuit	
38	1	dummy	bras	
38	1	dummy	guide	
