block number	trial number	trial contents	set1	set2	set3	set4	set5	set6	set7	set8	set9	set10	set11	set12	set13	set14	set15	set_Ex1	set_Ex2	set_Ex3	set_Ex4	set_Ex5	set_Ex6	correct_operation	incorrect_operation	response	RT	
1	1	IS  (5 x 1) - 1 = 4   ?, balle	0	0	0	0	0	0	0	0	0	0	0	0	0	0	0	1	0	0	0	0	0	1	0	correct	5617	
2	1	IS  (2 x 3) + 1 = 4   ?, bouche	0	0	0	0	0	0	0	0	0	0	0	0	0	0	0	0	1	0	0	0	0	0	1	incorrect	5683	
3	1	IS  (6 x 3) + 2 = 17   ?, sol	0	0	0	0	0	0	0	0	0	0	0	0	0	0	0	0	0	1	0	0	0	0	1	incorrect	4440	
4	1	IS  (2 x 2) + 1 = 4   ?, groupe	0	0	0	0	0	0	0	0	0	0	0	0	0	0	0	0	0	0	1	0	0	0	1	incorrect	3105	
5	1	dummy	-sol	
5	1	dummy	groupe	
6	1	IS  (3 : 1) - 2 = 3   ?, prix	0	0	0	0	0	0	0	0	0	0	0	0	0	0	0	0	0	0	0	1	0	0	1	incorrect	3598	
7	1	IS  (10 : 2) + 4 = 3   ?, pain	0	0	0	0	0	0	0	0	0	0	0	0	0	0	0	0	0	0	0	0	1	0	1	incorrect	2698	
8	1	dummy	prix	
8	1	dummy	pain	
9	1	IS  (8 : 2) + 4 = 2   ?, lait	1	0	0	0	0	0	0	0	0	0	0	0	0	0	0	0	0	0	0	0	0	0	1	incorrect	2909	
9	2	IS  (5 : 1) + 4 = 9   ?, argent	1	0	0	0	0	0	0	0	0	0	0	0	0	0	0	0	0	0	0	0	0	1	0	correct	2517	
9	3	IS  (9 x 2) - 3 = 16   ?, bois	1	0	0	0	0	0	0	0	0	0	0	0	0	0	0	0	0	0	0	0	0	0	1	correct	2980	
10	1	dummy	lait	
10	1	dummy	argent	
10	1	dummy	bois	
11	1	IS  (8 x 1) + 8 = 16   ?, air	0	1	0	0	0	0	0	0	0	0	0	0	0	0	0	0	0	0	0	0	0	1	0	correct	3269	
11	2	IS  (8 : 8) + 1 = 2   ?, coeur	0	1	0	0	0	0	0	0	0	0	0	0	0	0	0	0	0	0	0	0	0	1	0	correct	2334	
11	3	IS  (9 : 3) - 2 = 1   ?, rêve	0	1	0	0	0	0	0	0	0	0	0	0	0	0	0	0	0	0	0	0	0	1	0	incorrect	3333	
11	4	IS  (8 x 1) + 5 = 13   ?, coffre	0	1	0	0	0	0	0	0	0	0	0	0	0	0	0	0	0	0	0	0	0	1	0	correct	3068	
11	5	IS  (10 : 10) - 1 = 2   ?, mot	0	1	0	0	0	0	0	0	0	0	0	0	0	0	0	0	0	0	0	0	0	0	1	incorrect	4861	
12	1	dummy	air	
12	1	dummy	coeur	
12	1	dummy	reve	
12	1	dummy	coffre	
12	1	dummy	mot	
13	1	IS  (4 x 4) + 1 = 17   ?, fourchette	0	0	1	0	0	0	0	0	0	0	0	0	0	0	0	0	0	0	0	0	0	1	0	correct	2921	
13	2	IS  (9 : 1) - 7 = 4   ?, sac	0	0	1	0	0	0	0	0	0	0	0	0	0	0	0	0	0	0	0	0	0	0	1	incorrect	3792	
13	3	IS  (6 x 2) - 3 = 10   ?, bicyclette	0	0	1	0	0	0	0	0	0	0	0	0	0	0	0	0	0	0	0	0	0	0	1	incorrect	3308	
14	1	dummy	fourchette	
14	1	dummy	sac	
14	1	dummy	bicyclette	
15	1	IS  (3 : 1) + 3 = 6   ?, fête	0	0	0	1	0	0	0	0	0	0	0	0	0	0	0	0	0	0	0	0	0	1	0	correct	2766	
15	2	IS  (8 x 4) + 2 = 34   ?, tissu	0	0	0	1	0	0	0	0	0	0	0	0	0	0	0	0	0	0	0	0	0	1	0	incorrect	4660	
16	1	dummy	 	
16	1	dummy	tissu	
17	1	IS  (4 : 1) - 4 = 2   ?, pierre	0	0	0	0	1	0	0	0	0	0	0	0	0	0	0	0	0	0	0	0	0	0	1	incorrect	4143	
17	2	IS  (7 x 2) - 3 = 11   ?, maison	0	0	0	0	1	0	0	0	0	0	0	0	0	0	0	0	0	0	0	0	0	1	0	correct	3428	
17	3	IS  (4 : 1) + 1 = 4   ?, cri	0	0	0	0	1	0	0	0	0	0	0	0	0	0	0	0	0	0	0	0	0	0	1	incorrect	2263	
17	4	IS  (10 : 1) + 1 = 10   ?, voie	0	0	0	0	1	0	0	0	0	0	0	0	0	0	0	0	0	0	0	0	0	0	1	incorrect	1537	
17	5	IS  (10 x 2) + 3 = 23   ?, verre	0	0	0	0	1	0	0	0	0	0	0	0	0	0	0	0	0	0	0	0	0	1	0	correct	2464	
18	1	dummy	pierre	
18	1	dummy	maison	
18	1	dummy	cri	
18	1	dummy	voix	
18	1	dummy	pierre	
19	1	IS  (9 x 2) + 1 = 18   ?, escalier	0	0	0	0	0	1	0	0	0	0	0	0	0	0	0	0	0	0	0	0	0	0	1	incorrect	1748	
19	2	IS  (3 x 2) + 1 = 6   ?, enfant	0	0	0	0	0	1	0	0	0	0	0	0	0	0	0	0	0	0	0	0	0	0	1	correct	3435	
19	3	IS  (5 x 2) + 1 = 6   ?, tête	0	0	0	0	0	1	0	0	0	0	0	0	0	0	0	0	0	0	0	0	0	0	1	incorrect	2309	
19	4	IS  (9 x 1) - 1 = 8   ?, montre	0	0	0	0	0	1	0	0	0	0	0	0	0	0	0	0	0	0	0	0	0	1	0	correct	2461	
19	5	IS  (9 : 1) - 5 = 4   ?, plan	0	0	0	0	0	1	0	0	0	0	0	0	0	0	0	0	0	0	0	0	0	1	0	correct	3767	
20	1	dummy	escalier	
20	1	dummy	enfant	
20	1	dummy	tête	
20	1	dummy	montre	
20	1	dummy	plan	
21	1	IS  (10 : 2) - 3 = 2   ?, bouteille	0	0	0	0	0	0	1	0	0	0	0	0	0	0	0	0	0	0	0	0	0	1	0	correct	4176	
21	2	IS  (4 : 2) + 1 = 6   ?, serrure	0	0	0	0	0	0	1	0	0	0	0	0	0	0	0	0	0	0	0	0	0	0	1	incorrect	4733	
21	3	IS  (4 x 2) + 1 = 9   ?, homme	0	0	0	0	0	0	1	0	0	0	0	0	0	0	0	0	0	0	0	0	0	1	0	correct	4275	
21	4	IS  (9 : 3) - 1 = 2   ?, chemise	0	0	0	0	0	0	1	0	0	0	0	0	0	0	0	0	0	0	0	0	0	1	0	correct	3307	
21	5	IS  (10 : 2) + 4 = 9   ?, montagne	0	0	0	0	0	0	1	0	0	0	0	0	0	0	0	0	0	0	0	0	0	1	0	correct	4179	
21	6	IS  (6 x 1) - 4 = 1   ?, sang	0	0	0	0	0	0	1	0	0	0	0	0	0	0	0	0	0	0	0	0	0	0	1	incorrect	6471	
22	1	dummy	bouteille	
22	1	dummy	serrure	
22	1	dummy	homme	
22	1	dummy	montagne	
22	1	dummy	chemise	
22	1	dummy	sang	
23	1	IS  (6 : 3) + 2 = 4   ?, carte	0	0	0	0	0	0	0	1	0	0	0	0	0	0	0	0	0	0	0	0	0	1	0	correct	5688	
23	2	IS  (9 : 3) - 2 = 2   ?, chaise	0	0	0	0	0	0	0	1	0	0	0	0	0	0	0	0	0	0	0	0	0	0	1	incorrect	5639	
23	3	IS  (8 : 1) - 6 = 4   ?, film	0	0	0	0	0	0	0	1	0	0	0	0	0	0	0	0	0	0	0	0	0	0	1	correct	4136	
23	4	IS  (9 x 3) - 2 = 25   ?, cheval	0	0	0	0	0	0	0	1	0	0	0	0	0	0	0	0	0	0	0	0	0	1	0	incorrect	3990	
24	1	dummy	carte	
24	1	dummy	chaise	
24	1	dummy	film	
24	1	dummy	cheval	
25	1	IS  (3 x 1) + 2 = 2   ?, robinet	0	0	0	0	0	0	0	0	1	0	0	0	0	0	0	0	0	0	0	0	0	0	1	incorrect	1936	
25	2	IS  (7 x 2) - 1 = 14   ?, rouleau	0	0	0	0	0	0	0	0	1	0	0	0	0	0	0	0	0	0	0	0	0	0	1	incorrect	2622	
25	3	IS  (3 x 3) - 1 = 8   ?, bouton	0	0	0	0	0	0	0	0	1	0	0	0	0	0	0	0	0	0	0	0	0	1	0	correct	1345	
25	4	IS  (6 : 2) - 2 = 2   ?, classe	0	0	0	0	0	0	0	0	1	0	0	0	0	0	0	0	0	0	0	0	0	0	1	incorrect	4536	
25	5	IS  (8 x 4) - 2 = 32   ?, village	0	0	0	0	0	0	0	0	1	0	0	0	0	0	0	0	0	0	0	0	0	0	1	incorrect	6014	
25	6	IS  (5 : 5) + 1 = 2   ?, assiette	0	0	0	0	0	0	0	0	1	0	0	0	0	0	0	0	0	0	0	0	0	1	0	correct	8080	
26	1	dummy	robinet	
26	1	dummy	rouleau	
26	1	dummy	classe	
26	1	dummy	assiette	
26	1	dummy	village	
26	1	dummy	 	
27	1	IS  (7 x 1) + 6 = 13   ?, travail	0	0	0	0	0	0	0	0	0	1	0	0	0	0	0	0	0	0	0	0	0	1	0	correct	3963	
27	2	IS  (6 : 2) - 2 = 1   ?, point	0	0	0	0	0	0	0	0	0	1	0	0	0	0	0	0	0	0	0	0	0	1	0	correct	4896	
28	1	dummy	-travail	
28	1	dummy	point	
29	1	IS  (10 : 2) - 4 = 3   ?, banque	0	0	0	0	0	0	0	0	0	0	1	0	0	0	0	0	0	0	0	0	0	0	1	incorrect	3072	
29	2	IS  (9 x 1) + 9 = 1   ?, chien	0	0	0	0	0	0	0	0	0	0	1	0	0	0	0	0	0	0	0	0	0	0	1	incorrect	2257	
29	3	IS  (7 : 1) + 2 = 7   ?, voeu	0	0	0	0	0	0	0	0	0	0	1	0	0	0	0	0	0	0	0	0	0	0	1	incorrect	2491	
29	4	IS  (6 : 2) + 1 = 4   ?, moustache	0	0	0	0	0	0	0	0	0	0	1	0	0	0	0	0	0	0	0	0	0	1	0	correct	2708	
30	1	dummy	banque	
30	1	dummy	chian	
30	1	dummy	cheveu	
30	1	dummy	 	
31	1	IS  (10 : 1) + 3 = 13   ?, mur	0	0	0	0	0	0	0	0	0	0	0	1	0	0	0	0	0	0	0	0	0	1	0	correct	2364	
31	2	IS  (2 x 1) - 1 = 1   ?, toit	0	0	0	0	0	0	0	0	0	0	0	1	0	0	0	0	0	0	0	0	0	1	0	incorrect	4586	
31	3	IS  (8 : 4) - 1 = 1   ?, étable	0	0	0	0	0	0	0	0	0	0	0	1	0	0	0	0	0	0	0	0	0	1	0	incorrect	4758	
32	1	dummy	mur	
32	1	dummy	toit	
32	1	dummy	étable	
33	1	IS  (10 : 2) + 4 = 8   ?, herbe	0	0	0	0	0	0	0	0	0	0	0	0	1	0	0	0	0	0	0	0	0	0	1	incorrect	3506	
33	2	IS  (7 x 7) + 1 = 49   ?, nappe	0	0	0	0	0	0	0	0	0	0	0	0	1	0	0	0	0	0	0	0	0	0	1	incorrect	1969	
34	1	dummy	herbe	
34	1	dummy	nappe	
35	1	IS  (6 x 3) - 2 = 11   ?, lettre	0	0	0	0	0	0	0	0	0	0	0	0	0	1	0	0	0	0	0	0	0	0	1	incorrect	3940	
35	2	IS  (10 x 2) - 6 = 12   ?, peinture	0	0	0	0	0	0	0	0	0	0	0	0	0	1	0	0	0	0	0	0	0	0	1	incorrect	2786	
35	3	IS  (9 x 3) - 3 = 24   ?, poupée	0	0	0	0	0	0	0	0	0	0	0	0	0	1	0	0	0	0	0	0	0	1	0	incorrect	4134	
35	4	IS  (9 : 1) + 8 = 18   ?, feuille	0	0	0	0	0	0	0	0	0	0	0	0	0	1	0	0	0	0	0	0	0	0	1	incorrect	4804	
35	5	IS  (5 x 1) - 1 = 5   ?, femme	0	0	0	0	0	0	0	0	0	0	0	0	0	1	0	0	0	0	0	0	0	0	1	incorrect	1775	
35	6	IS  (6 x 4) + 1 = 25   ?, église	0	0	0	0	0	0	0	0	0	0	0	0	0	1	0	0	0	0	0	0	0	1	0	correct	6661	
36	1	dummy	lettre	
36	1	dummy	peinture	
36	1	dummy	feuille	
36	1	dummy	femme	
36	1	dummy	église	
36	1	dummy	 	
37	1	IS  (8 : 2) - 1 = 3   ?, bras	0	0	0	0	0	0	0	0	0	0	0	0	0	0	1	0	0	0	0	0	0	1	0	correct	2542	
37	2	IS  (6 x 2) - 2 = 10   ?, nuit	0	0	0	0	0	0	0	0	0	0	0	0	0	0	1	0	0	0	0	0	0	1	0	correct	3093	
37	3	IS  (7 : 1) + 6 = 12   ?, voix	0	0	0	0	0	0	0	0	0	0	0	0	0	0	1	0	0	0	0	0	0	0	1	incorrect	5765	
37	4	IS  (10 : 1) - 1 = 9   ?, guide	0	0	0	0	0	0	0	0	0	0	0	0	0	0	1	0	0	0	0	0	0	1	0	correct	2049	
38	1	dummy	-bras	
38	1	dummy	nuit	
38	1	dummy	voix	
38	1	dummy	guide	
