block number	trial number	trial contents	set1	set2	set3	set4	set5	set6	set7	set8	set9	set10	set11	set12	set13	set14	set15	set_Ex1	set_Ex2	set_Ex3	set_Ex4	set_Ex5	set_Ex6	correct_operation	incorrect_operation	response	RT	
1	1	IS  (5 x 1) - 1 = 4   ?, balle	0	0	0	0	0	0	0	0	0	0	0	0	0	0	0	1	0	0	0	0	0	1	0	correct	4429	
2	1	IS  (2 x 3) + 1 = 4   ?, bouche	0	0	0	0	0	0	0	0	0	0	0	0	0	0	0	0	1	0	0	0	0	0	1	incorrect	3939	
3	1	IS  (6 x 3) + 2 = 17   ?, sol	0	0	0	0	0	0	0	0	0	0	0	0	0	0	0	0	0	1	0	0	0	0	1	incorrect	11192	
4	1	IS  (2 x 2) + 1 = 4   ?, groupe	0	0	0	0	0	0	0	0	0	0	0	0	0	0	0	0	0	0	1	0	0	0	1	incorrect	5226	
5	1	dummy	²sol	
5	1	dummy	groupe	
6	1	IS  (3 : 1) - 2 = 3   ?, prix	0	0	0	0	0	0	0	0	0	0	0	0	0	0	0	0	0	0	0	1	0	0	1	incorrect	3832	
7	1	IS  (10 : 2) + 4 = 3   ?, pain	0	0	0	0	0	0	0	0	0	0	0	0	0	0	0	0	0	0	0	0	1	0	1	incorrect	3034	
8	1	dummy	prix	
8	1	dummy	pain	
9	1	IS  (5 : 1) + 4 = 9   ?, bois	1	0	0	0	0	0	0	0	0	0	0	0	0	0	0	0	0	0	0	0	0	1	0	correct	3661	
9	2	IS  (8 : 2) + 4 = 2   ?, lait	1	0	0	0	0	0	0	0	0	0	0	0	0	0	0	0	0	0	0	0	0	0	1	incorrect	2733	
9	3	IS  (9 x 2) - 3 = 16   ?, argent	1	0	0	0	0	0	0	0	0	0	0	0	0	0	0	0	0	0	0	0	0	0	1	correct	3718	
10	1	dummy	bois	
10	1	dummy	lait	
10	1	dummy	argent	
11	1	IS  (8 x 1) + 8 = 16   ?, air	0	1	0	0	0	0	0	0	0	0	0	0	0	0	0	0	0	0	0	0	0	1	0	correct	2168	
11	2	IS  (8 x 1) + 5 = 13   ?, coeur	0	1	0	0	0	0	0	0	0	0	0	0	0	0	0	0	0	0	0	0	0	1	0	correct	2722	
11	3	IS  (9 : 3) - 2 = 1   ?, mot	0	1	0	0	0	0	0	0	0	0	0	0	0	0	0	0	0	0	0	0	0	1	0	correct	4203	
11	4	IS  (8 : 8) + 1 = 2   ?, coffre	0	1	0	0	0	0	0	0	0	0	0	0	0	0	0	0	0	0	0	0	0	1	0	correct	3796	
11	5	IS  (10 : 10) - 1 = 2   ?, rêve	0	1	0	0	0	0	0	0	0	0	0	0	0	0	0	0	0	0	0	0	0	0	1	incorrect	4494	
12	1	dummy	- 	
12	1	dummy	coeur	
12	1	dummy	mot	
12	1	dummy	coffre	
12	1	dummy	rêve	
13	1	IS  (4 x 4) + 1 = 17   ?, fourchette	0	0	1	0	0	0	0	0	0	0	0	0	0	0	0	0	0	0	0	0	0	1	0	correct	3311	
13	2	IS  (6 x 2) - 3 = 10   ?, bicyclette	0	0	1	0	0	0	0	0	0	0	0	0	0	0	0	0	0	0	0	0	0	0	1	incorrect	4023	
13	3	IS  (9 : 1) - 7 = 4   ?, sac	0	0	1	0	0	0	0	0	0	0	0	0	0	0	0	0	0	0	0	0	0	0	1	incorrect	3173	
14	1	dummy	²fourchette	
14	1	dummy	bicyclette	
14	1	dummy	sac	
15	1	IS  (8 x 4) + 2 = 34   ?, tissu	0	0	0	1	0	0	0	0	0	0	0	0	0	0	0	0	0	0	0	0	0	1	0	correct	4342	
15	2	IS  (3 : 1) + 3 = 6   ?, fête	0	0	0	1	0	0	0	0	0	0	0	0	0	0	0	0	0	0	0	0	0	1	0	correct	1967	
16	1	dummy	tissu	
16	1	dummy	fête	
17	1	IS  (7 x 2) - 3 = 11   ?, verre	0	0	0	0	1	0	0	0	0	0	0	0	0	0	0	0	0	0	0	0	0	1	0	correct	3761	
17	2	IS  (4 : 1) - 4 = 2   ?, pierre	0	0	0	0	1	0	0	0	0	0	0	0	0	0	0	0	0	0	0	0	0	0	1	incorrect	2855	
17	3	IS  (10 : 1) + 1 = 10   ?, maison	0	0	0	0	1	0	0	0	0	0	0	0	0	0	0	0	0	0	0	0	0	0	1	correct	6461	
17	4	IS  (4 : 1) + 1 = 4   ?, cri	0	0	0	0	1	0	0	0	0	0	0	0	0	0	0	0	0	0	0	0	0	0	1	incorrect	3197	
17	5	IS  (10 x 2) + 3 = 23   ?, voie	0	0	0	0	1	0	0	0	0	0	0	0	0	0	0	0	0	0	0	0	0	1	0	correct	3116	
18	1	dummy	- 	
18	1	dummy	 	
18	1	dummy	maison	
18	1	dummy	cri	
18	1	dummy	voie	
19	1	IS  (3 x 2) + 1 = 6   ?, tête	0	0	0	0	0	1	0	0	0	0	0	0	0	0	0	0	0	0	0	0	0	0	1	incorrect	3024	
19	2	IS  (9 : 1) - 5 = 4   ?, montre	0	0	0	0	0	1	0	0	0	0	0	0	0	0	0	0	0	0	0	0	0	1	0	correct	2600	
19	3	IS  (5 x 2) + 1 = 6   ?, enfant	0	0	0	0	0	1	0	0	0	0	0	0	0	0	0	0	0	0	0	0	0	0	1	incorrect	1747	
19	4	IS  (9 x 2) + 1 = 18   ?, escalier	0	0	0	0	0	1	0	0	0	0	0	0	0	0	0	0	0	0	0	0	0	0	1	incorrect	1872	
19	5	IS  (9 x 1) - 1 = 8   ?, plan	0	0	0	0	0	1	0	0	0	0	0	0	0	0	0	0	0	0	0	0	0	1	0	correct	2439	
20	1	dummy	²²tête	
20	1	dummy	montre	
20	1	dummy	enfant	
20	1	dummy	escalier	
20	1	dummy	 	
21	1	IS  (6 x 1) - 4 = 1   ?, chemise	0	0	0	0	0	0	1	0	0	0	0	0	0	0	0	0	0	0	0	0	0	0	1	incorrect	2185	
21	2	IS  (10 : 2) + 4 = 9   ?, sang	0	0	0	0	0	0	1	0	0	0	0	0	0	0	0	0	0	0	0	0	0	1	0	correct	2324	
21	3	IS  (4 : 2) + 1 = 6   ?, bouteille	0	0	0	0	0	0	1	0	0	0	0	0	0	0	0	0	0	0	0	0	0	0	1	incorrect	2161	
21	4	IS  (10 : 2) - 3 = 2   ?, homme	0	0	0	0	0	0	1	0	0	0	0	0	0	0	0	0	0	0	0	0	0	1	0	correct	2780	
21	5	IS  (9 : 3) - 1 = 2   ?, montagne	0	0	0	0	0	0	1	0	0	0	0	0	0	0	0	0	0	0	0	0	0	1	0	correct	3501	
21	6	IS  (4 x 2) + 1 = 9   ?, serrure	0	0	0	0	0	0	1	0	0	0	0	0	0	0	0	0	0	0	0	0	0	1	0	correct	3360	
22	1	dummy	²-chemise	
22	1	dummy	sang	
22	1	dummy	bouteille 	
22	1	dummy	homme	
22	1	dummy	montagne	
22	1	dummy	 	
23	1	IS  (6 : 3) + 2 = 4   ?, cheval	0	0	0	0	0	0	0	1	0	0	0	0	0	0	0	0	0	0	0	0	0	1	0	correct	2301	
23	2	IS  (9 : 3) - 2 = 2   ?, carte	0	0	0	0	0	0	0	1	0	0	0	0	0	0	0	0	0	0	0	0	0	0	1	incorrect	2019	
23	3	IS  (9 x 3) - 2 = 25   ?, chaise	0	0	0	0	0	0	0	1	0	0	0	0	0	0	0	0	0	0	0	0	0	1	0	correct	4341	
23	4	IS  (8 : 1) - 6 = 4   ?, film	0	0	0	0	0	0	0	1	0	0	0	0	0	0	0	0	0	0	0	0	0	0	1	incorrect	4260	
24	1	dummy	cheval	
24	1	dummy	carte	
24	1	dummy	chaise	
24	1	dummy	montagne	
25	1	IS  (5 : 5) + 1 = 2   ?, classe	0	0	0	0	0	0	0	0	1	0	0	0	0	0	0	0	0	0	0	0	0	1	0	incorrect	1785	
25	2	IS  (3 x 1) + 2 = 2   ?, village	0	0	0	0	0	0	0	0	1	0	0	0	0	0	0	0	0	0	0	0	0	0	1	incorrect	2143	
25	3	IS  (8 x 4) - 2 = 32   ?, rouleau	0	0	0	0	0	0	0	0	1	0	0	0	0	0	0	0	0	0	0	0	0	0	1	correct	3253	
25	4	IS  (3 x 3) - 1 = 8   ?, assiette	0	0	0	0	0	0	0	0	1	0	0	0	0	0	0	0	0	0	0	0	0	1	0	correct	2155	
25	5	IS  (6 : 2) - 2 = 2   ?, bouton	0	0	0	0	0	0	0	0	1	0	0	0	0	0	0	0	0	0	0	0	0	0	1	incorrect	3411	
25	6	IS  (7 x 2) - 1 = 14   ?, robinet	0	0	0	0	0	0	0	0	1	0	0	0	0	0	0	0	0	0	0	0	0	0	1	correct	3779	
26	1	dummy	²classe	
26	1	dummy	rouleau	
26	1	dummy	assiette	
26	1	dummy	 	
26	1	dummy	 	
26	1	dummy	 	
27	1	IS  (7 x 1) + 6 = 13   ?, travail	0	0	0	0	0	0	0	0	0	1	0	0	0	0	0	0	0	0	0	0	0	1	0	correct	6051	
27	2	IS  (6 : 2) - 2 = 1   ?, point	0	0	0	0	0	0	0	0	0	1	0	0	0	0	0	0	0	0	0	0	0	1	0	correct	1876	
28	1	dummy	travail	
28	1	dummy	point	
29	1	IS  (9 x 1) + 9 = 1   ?, banque	0	0	0	0	0	0	0	0	0	0	1	0	0	0	0	0	0	0	0	0	0	0	1	incorrect	2803	
29	2	IS  (7 : 1) + 2 = 7   ?, moustache	0	0	0	0	0	0	0	0	0	0	1	0	0	0	0	0	0	0	0	0	0	0	1	incorrect	5874	
29	3	IS  (6 : 2) + 1 = 4   ?, chien	0	0	0	0	0	0	0	0	0	0	1	0	0	0	0	0	0	0	0	0	0	1	0	correct	2515	
29	4	IS  (10 : 2) - 4 = 3   ?, voeu	0	0	0	0	0	0	0	0	0	0	1	0	0	0	0	0	0	0	0	0	0	0	1	incorrect	4675	
30	1	dummy	²banque	
30	1	dummy	moustache	
30	1	dummy	chien	
30	1	dummy	voeu	
31	1	IS  (2 x 1) - 1 = 1   ?, toit	0	0	0	0	0	0	0	0	0	0	0	1	0	0	0	0	0	0	0	0	0	1	0	correct	3591	
31	2	IS  (10 : 1) + 3 = 13   ?, mur	0	0	0	0	0	0	0	0	0	0	0	1	0	0	0	0	0	0	0	0	0	1	0	correct	2242	
31	3	IS  (8 : 4) - 1 = 1   ?, étable	0	0	0	0	0	0	0	0	0	0	0	1	0	0	0	0	0	0	0	0	0	1	0	incorrect	3440	
32	1	dummy	-toit	
32	1	dummy	mur	
32	1	dummy	etable	
33	1	IS  (7 x 7) + 1 = 49   ?, nappe	0	0	0	0	0	0	0	0	0	0	0	0	1	0	0	0	0	0	0	0	0	0	1	incorrect	3143	
33	2	IS  (10 : 2) + 4 = 8   ?, herbe	0	0	0	0	0	0	0	0	0	0	0	0	1	0	0	0	0	0	0	0	0	0	1	incorrect	1674	
34	1	dummy	nappe	
34	1	dummy	herbe	
35	1	IS  (6 x 3) - 2 = 11   ?, poupée	0	0	0	0	0	0	0	0	0	0	0	0	0	1	0	0	0	0	0	0	0	0	1	incorrect	2620	
35	2	IS  (9 : 1) + 8 = 18   ?, femme	0	0	0	0	0	0	0	0	0	0	0	0	0	1	0	0	0	0	0	0	0	0	1	incorrect	4917	
35	3	IS  (9 x 3) - 3 = 24   ?, église	0	0	0	0	0	0	0	0	0	0	0	0	0	1	0	0	0	0	0	0	0	1	0	correct	2890	
35	4	IS  (6 x 4) + 1 = 25   ?, feuille	0	0	0	0	0	0	0	0	0	0	0	0	0	1	0	0	0	0	0	0	0	1	0	correct	4332	
35	5	IS  (10 x 2) - 6 = 12   ?, peinture	0	0	0	0	0	0	0	0	0	0	0	0	0	1	0	0	0	0	0	0	0	0	1	correct	3362	
35	6	IS  (5 x 1) - 1 = 5   ?, lettre	0	0	0	0	0	0	0	0	0	0	0	0	0	1	0	0	0	0	0	0	0	0	1	incorrect	3849	
36	1	dummy	²²-poupee	
36	1	dummy	femme	
36	1	dummy	eglise	
36	1	dummy	feuille	
36	1	dummy	peinture	
36	1	dummy	 	
37	1	IS  (7 : 1) + 6 = 12   ?, bras	0	0	0	0	0	0	0	0	0	0	0	0	0	0	1	0	0	0	0	0	0	0	1	correct	3147	
37	2	IS  (6 x 2) - 2 = 10   ?, voix	0	0	0	0	0	0	0	0	0	0	0	0	0	0	1	0	0	0	0	0	0	1	0	correct	2823	
37	3	IS  (10 : 1) - 1 = 9   ?, guide	0	0	0	0	0	0	0	0	0	0	0	0	0	0	1	0	0	0	0	0	0	1	0	correct	1515	
37	4	IS  (8 : 2) - 1 = 3   ?, nuit	0	0	0	0	0	0	0	0	0	0	0	0	0	0	1	0	0	0	0	0	0	1	0	correct	2333	
38	1	dummy	bras	
38	1	dummy	voix	
38	1	dummy	guide	
38	1	dummy	 	
